aX,aY,aZ,gX,gY,gZ
0.338,0.279,1.789,-47.729,17.944,124.451
0.299,0.213,1.775,-35.583,44.434,121.765
0.202,0.202,1.612,-26.489,44.495,141.785
0.302,0.362,1.541,-17.761,24.719,143.616
0.411,0.488,1.587,-15.869,15.747,138.733
0.409,0.554,1.708,-22.644,16.479,133.484
0.326,0.578,1.786,-34.180,21.423,128.418
0.318,0.566,1.856,-39.551,30.762,123.596
0.347,0.568,1.910,-38.696,41.199,121.094
0.386,0.583,1.912,-35.889,53.589,117.493
0.402,0.615,1.857,-33.569,67.505,114.746
0.401,0.655,1.801,-33.752,92.224,113.892
0.398,0.704,1.753,-33.936,84.717,112.427
0.389,0.758,1.726,-33.752,88.867,109.680
0.373,0.794,1.706,-33.325,94.421,107.300
0.363,0.834,1.686,-32.959,99.243,103.699
0.342,0.854,1.657,-32.776,105.652,100.464
0.335,0.887,1.639,-34.668,112.488,97.473
0.325,0.913,1.569,-37.964,122.742,93.689
0.305,0.948,1.528,-41.382,130.432,89.905
0.277,0.985,1.460,-43.579,137.024,84.473
0.259,1.030,1.364,-47.729,141.602,78.857
0.234,1.052,1.279,-50.354,145.264,70.190
0.221,1.093,1.186,-51.880,147.766,62.378
0.204,1.067,1.108,-51.758,149.658,51.941
0.197,1.059,1.021,-49.316,151.001,42.480
0.191,1.033,0.958,-45.654,152.222,31.433
0.185,1.011,0.883,-40.955,152.893,22.766
0.180,0.990,0.823,-35.889,151.367,14.526
0.180,0.975,0.757,-31.921,148.499,4.333
0.199,0.844,0.709,-23.254,137.634,-26.978
0.204,0.791,0.703,-22.583,138.428,-32.471
0.211,0.746,0.687,-21.606,139.832,-38.879
0.219,0.698,0.663,-19.226,141.296,-42.969
0.231,0.664,0.641,-17.273,142.822,-48.157
0.241,0.615,0.620,-13.123,144.287,-52.368
0.250,0.580,0.602,-8.301,146.301,-57.556
0.259,0.543,0.585,-1.953,147.949,-61.157
0.272,0.510,0.568,2.075,150.208,-65.369
0.275,0.480,0.534,7.568,153.198,-68.054
0.281,0.442,0.502,11.963,154.297,-70.251
0.282,0.421,0.459,17.029,155.151,-71.838
0.275,0.398,0.429,20.996,154.724,-73.608
0.271,0.393,0.405,23.132,153.809,-74.463
0.262,0.384,0.387,24.719,152.771,-75.745
0.251,0.378,0.368,26.001,152.161,-76.050
0.244,0.367,0.348,25.635,151.794,-75.989
0.245,0.368,0.327,24.841,151.367,-75.195
0.245,0.370,0.288,22.644,150.696,-73.975
0.242,0.375,0.219,20.630,148.254,-72.144
0.230,0.385,0.209,17.639,145.813,-70.923
0.208,0.403,0.180,15.808,142.395,-71.167
0.185,0.415,0.154,13.550,137.573,-72.876
0.160,0.414,0.146,11.658,134.094,-76.111
0.145,0.406,0.138,10.437,131.226,-79.041
0.132,0.387,0.133,9.521,129.211,-82.581
0.126,0.363,0.120,8.301,127.808,-85.388
0.124,0.333,0.104,7.446,125.977,-88.074
0.128,0.307,0.086,7.202,123.718,-91.187
0.132,0.279,0.064,6.470,121.460,-93.384
0.135,0.252,0.045,6.042,118.774,-95.459
0.151,0.130,-0.035,5.188,106.201,-100.281
0.149,0.100,-0.057,5.859,102.661,-101.257
0.155,0.070,-0.068,6.592,99.487,-101.868
0.157,0.042,-0.083,7.080,94.604,-102.966
0.165,0.005,-0.090,7.263,90.698,-102.600
0.166,-0.033,-0.097,6.653,85.693,-102.051
0.167,-0.082,-0.101,6.165,82.092,-100.403
0.162,-0.152,-0.106,5.859,77.576,-98.328
0.158,-0.164,-0.105,6.775,74.158,-95.764
0.162,-0.197,-0.106,8.362,70.984,-93.140
0.163,-0.227,-0.110,10.376,69.824,-89.294
0.159,-0.251,-0.119,13.550,67.017,-85.938
0.153,-0.280,-0.130,15.259,65.796,-80.627
0.139,-0.295,-0.146,19.104,63.599,-76.111
0.127,-0.300,-0.157,22.095,61.768,-70.618
0.118,-0.292,-0.172,24.658,59.631,-66.040
0.105,-0.268,-0.184,26.733,58.228,-61.462
0.095,-0.253,-0.205,28.198,55.237,-58.411
0.083,-0.230,-0.219,29.602,52.185,-55.176
0.076,-0.214,-0.233,29.541,48.523,-53.162
0.066,-0.205,-0.249,29.480,45.227,-50.659
0.062,-0.205,-0.256,28.687,41.260,-48.462
0.060,-0.203,-0.262,27.649,38.269,-45.776
0.055,-0.199,-0.274,26.367,34.851,-43.762
0.048,-0.189,-0.291,24.475,31.372,-41.931
0.045,-0.173,-0.316,20.630,26.489,-40.527
0.054,-0.202,-0.372,2.197,2.563,-35.095
0.056,-0.228,-0.376,-0.122,-1.526,-32.043
0.055,-0.281,-0.374,-2.625,-5.432,-28.503
0.053,-0.263,-0.380,-4.700,-7.996,-23.987
0.052,-0.261,-0.403,-8.179,-11.353,-20.264
0.050,-0.256,-0.426,-11.047,-13.794,-16.418
0.042,-0.251,-0.458,-14.709,-18.311,-13.428
0.029,-0.250,-0.483,-17.517,-23.499,-10.010
0.014,-0.245,-0.510,-19.409,-28.809,-8.118
0.007,-0.243,-0.523,-20.203,-35.034,-6.042
0.008,-0.235,-0.527,-21.301,-39.551,-4.395
0.008,-0.228,-0.519,-21.545,-43.884,-2.014
0.010,-0.218,-0.525,-22.522,-47.180,15.381
0.004,-0.214,-0.543,-22.522,-51.270,1.892
-0.003,-0.215,-0.562,-21.179,-54.749,2.563
-0.013,-0.216,-0.573,-19.165,-59.021,3.174
-0.016,-0.211,-0.578,-15.564,-62.073,3.845
-0.014,-0.199,-0.590,-12.146,-65.430,4.211
-0.005,-0.182,-0.604,-10.071,-68.787,4.517
0.003,-0.166,-0.624,-8.789,-73.669,5.127
0.014,-0.151,-0.648,-8.118,-79.163,5.676
0.021,-0.132,-0.669,-8.423,-87.769,6.470
0.025,-0.104,-0.681,-9.033,-95.215,6.470
0.104,-0.079,-0.646,-11.292,-132.935,5.554
0.124,-0.080,-0.629,-13.611,-141.296,6.897
0.145,-0.082,-0.605,-17.029,-151.062,8.362
0.156,-0.080,-0.572,-20.386,-158.447,9.399
0.164,-0.078,-0.541,-22.827,-165.894,9.094
0.173,-0.081,-0.512,-24.780,-170.959,7.629
0.197,-0.098,-0.491,-25.024,-175.659,5.859
0.223,-0.123,-0.475,-22.705,-178.772,5.249
0.239,-0.139,-0.474,-20.264,-183.044,5.371
0.248,-0.149,-0.482,-16.846,-187.561,5.066
0.256,-0.154,-0.487,-12.817,-195.557,4.578
0.269,-0.163,-0.472,-7.751,-202.881,3.357
0.284,-0.177,-0.431,-2.075,-212.341,1.587
0.301,-0.197,-0.392,5.066,-218.933,0.488
0.314,-0.215,-0.346,11.292,-226.501,1.038
0.338,-0.225,-0.306,18.494,-233.154,2.869
0.356,-0.231,-0.249,23.926,-241.455,4.883
0.377,-0.234,-0.184,29.968,-248.535,7.446
0.394,-0.227,-0.079,34.973,-256.104,9.155
0.413,-0.202,0.024,39.246,-260.925,11.475
0.431,-0.182,0.137,41.077,-264.771,13.489
0.440,-0.175,0.214,40.955,-267.883,31.067
0.449,-0.171,0.305,41.199,-272.583,18.677
0.526,-0.056,0.726,42.725,-304.504,29.968
0.549,-0.010,0.887,40.833,-307.983,32.288
0.581,0.035,1.091,36.926,-305.176,34.973
0.583,0.092,1.243,32.898,-303.406,35.522
0.579,0.154,1.420,27.466,-299.622,35.400
0.549,0.239,1.537,19.226,-297.485,33.936
0.553,0.296,1.750,13.855,-292.664,28.503
0.547,0.370,1.971,9.155,-281.982,21.545
0.544,0.366,2.153,5.981,-270.203,10.498
0.542,0.370,2.355,5.249,-248.962,2.075
0.551,0.360,2.492,5.432,-226.624,-6.897
0.570,0.348,2.606,8.972,-195.557,-12.878
0.571,0.333,2.641,12.329,-169.067,-18.738
0.559,0.321,2.631,14.709,-140.015,-22.156
0.525,0.302,2.592,14.709,-119.385,-25.574
0.488,0.286,2.528,12.756,-100.281,-27.710
0.459,0.251,2.480,8.240,-88.074,-29.846
0.440,0.220,2.438,3.723,-76.172,-31.738
0.436,0.173,2.420,-1.526,-65.857,-33.142
0.431,0.129,2.401,-5.798,-52.917,-33.142
0.427,0.077,2.377,-9.644,-40.894,-32.471
0.419,0.042,2.318,-13.794,-26.001,-30.701
0.410,0.007,2.248,-18.188,-13.428,-28.503
0.390,-0.012,2.128,-21.484,-0.244,-26.672
0.229,0.004,1.999,-24.414,4.700,-23.926
0.319,-0.046,1.860,-31.189,9.460,-17.273
0.496,-0.039,1.929,-36.072,20.081,-19.958
0.317,-0.032,1.683,-45.044,30.273,-16.846
0.284,-0.112,1.606,-39.978,25.818,-23.682
0.331,-0.177,1.539,-35.767,41.504,-22.888
0.269,-0.139,1.108,-28.076,45.349,0.183
0.237,-0.120,1.064,-27.588,41.626,0.549
0.216,-0.137,1.027,-32.715,39.429,0.000
0.244,-0.159,1.006,-36.560,38.635,1.038
0.226,-0.172,0.981,-36.560,42.542,3.784
0.239,-0.198,0.932,-34.668,45.715,5.981
0.208,-0.202,0.850,-32.349,49.683,9.766
0.195,-0.207,0.831,-27.283,50.171,14.160
0.176,-0.178,0.753,-24.658,51.941,18.005
0.151,-0.150,0.727,-22.400,50.110,20.081
0.117,-0.119,0.683,-20.752,46.265,20.874
0.097,-0.091,0.649,-19.653,41.626,19.836
0.097,-0.064,0.637,-19.226,38.452,18.616
0.097,-0.054,0.624,-19.348,36.438,17.639
0.095,-0.043,0.614,-19.653,35.034,15.930
0.094,-0.028,0.600,-18.127,33.630,15.564
0.094,-0.016,0.589,-17.151,33.142,15.076
0.090,-0.013,0.574,-15.564,32.288,13.672
0.082,-0.005,0.565,-13.916,31.494,12.390
0.056,0.021,0.556,-11.780,31.006,11.230
0.075,-0.003,0.544,-8.240,31.189,9.949
0.076,0.006,0.550,-5.554,33.081,7.874
0.088,0.003,0.529,-2.869,35.339,7.202
0.086,0.000,0.499,-0.488,37.170,7.446
0.083,0.011,0.464,1.709,37.476,7.080
0.084,0.021,0.436,2.075,37.720,6.348
0.076,0.000,0.403,2.869,36.011,4.639
0.068,0.037,0.384,3.845,32.593,2.441
0.067,0.045,0.381,3.845,28.076,1.221
0.072,0.042,0.396,1.831,25.513,0.732
0.080,0.032,0.409,-1.038,24.109,0.549
0.078,0.007,0.415,-5.493,24.170,1.343
0.073,-0.006,0.411,-9.521,24.780,3.296
0.059,-0.019,0.393,-13.977,25.452,4.517
0.044,-0.024,0.367,-16.968,25.696,6.104
0.031,-0.026,0.336,-18.982,24.475,6.714
0.020,-0.019,0.312,-19.714,22.461,6.714
0.016,-0.011,0.290,-19.531,18.677,6.165
0.015,-0.002,0.284,-18.555,14.893,5.249
0.016,0.001,0.295,-16.724,10.925,3.723
0.017,0.003,0.309,-15.930,8.179,2.686
0.020,0.004,0.331,-14.648,6.042,1.648
0.024,0.007,0.350,-13.855,4.456,0.610
0.026,0.013,0.369,-13.123,3.845,-0.977
0.061,0.012,0.384,-12.634,3.296,-2.319
0.031,0.014,0.395,-11.963,3.540,-3.906
0.035,0.007,0.408,-11.414,3.845,-5.493
0.043,0.003,0.415,-10.986,4.150,-6.836
0.052,-0.002,0.418,-10.986,4.822,-7.507
0.059,-0.006,0.423,-11.658,5.310,-8.301
0.061,-0.012,0.424,-12.085,5.188,-9.155
0.068,-0.023,0.423,-12.024,4.700,-9.460
0.070,-0.062,0.431,-12.695,4.517,-9.644
0.078,-0.042,0.438,-13.062,4.089,-9.888
0.086,-0.053,0.445,-12.878,4.639,-9.766
0.092,-0.062,0.453,-13.184,5.493,-9.399
0.098,-0.069,0.460,-12.756,7.385,-8.728
0.102,-0.073,0.455,-11.780,8.911,-7.690
0.095,-0.077,0.434,-10.315,11.597,-5.371
0.096,-0.075,0.426,-10.071,11.536,-4.517
0.097,-0.073,0.417,-9.705,11.169,-3.784
0.095,-0.070,0.404,-10.010,10.254,-3.052
0.097,-0.068,0.398,-10.498,7.996,-2.808
0.097,-0.066,0.397,-10.742,6.348,-2.319
0.095,-0.068,0.410,-10.376,4.578,-2.502
0.095,-0.068,0.422,-10.925,3.967,-2.075
0.093,-0.070,0.429,-11.841,4.211,-1.404
0.091,-0.072,0.433,-11.963,4.089,-1.099
0.089,-0.075,0.435,-11.719,4.761,-0.916
0.088,-0.075,0.435,-10.559,4.272,-0.977
0.089,-0.075,0.436,-10.010,4.211,-0.488
0.087,-0.075,0.442,-9.583,4.211,-0.488
0.088,-0.071,0.444,-9.583,4.089,0.305
0.089,-0.064,0.452,-9.705,3.723,1.099
0.090,-0.057,0.450,-10.620,3.479,1.648
0.090,-0.053,0.446,-11.780,2.869,2.014
0.088,-0.042,0.444,-13.184,1.709,2.136
0.084,-0.034,0.445,-14.160,0.427,2.380
0.081,-0.027,0.449,-14.771,-1.099,2.075
0.082,-0.022,0.453,-15.564,-2.441,1.221
0.081,-0.022,0.463,-15.747,-3.357,0.549
0.085,-0.024,0.476,-15.991,-3.113,-0.122
0.085,-0.029,0.481,-15.198,-2.563,-1.038
0.087,-0.024,0.487,-15.259,-2.014,-1.709
0.087,-0.018,0.487,-14.893,-0.977,-1.953
0.081,-0.017,0.479,-15.259,-0.427,-2.502
0.081,-0.011,0.470,-15.137,-0.671,-3.296
0.077,-0.008,0.468,-15.381,-0.916,-4.272
0.074,-0.010,0.467,-14.832,-1.892,-5.554
0.075,-0.010,0.469,-14.343,-2.380,-6.470
0.075,-0.013,0.472,-14.648,-3.235,-7.263
0.077,-0.016,0.478,-14.526,-3.662,-8.301
0.079,-0.023,0.479,-14.526,-3.967,-8.606
0.075,-0.027,0.479,-14.648,-4.639,-9.155
0.075,-0.031,0.480,-13.611,-4.700,-9.583
0.075,-0.031,0.483,-12.634,-4.456,-9.460
0.074,-0.034,0.481,-12.146,-4.089,-9.766
0.075,-0.032,0.479,-12.268,-4.395,-9.766
0.074,-0.040,0.474,-13.184,-5.371,-9.583
0.074,-0.044,0.475,-13.977,-6.653,-9.644
0.082,-0.066,0.497,-15.015,-10.193,-9.583
0.088,-0.071,0.504,-15.015,-10.010,-9.094
0.088,-0.075,0.503,-14.954,-9.277,-8.972
0.088,-0.080,0.503,-14.160,-8.484,-9.155
0.088,-0.086,0.495,-12.817,-8.179,-9.094
0.085,-0.087,0.491,-11.230,-8.240,-9.338
0.085,-0.089,0.489,-9.827,-8.667,-9.338
0.085,-0.088,0.491,-9.094,-8.606,-9.277
0.091,-0.089,0.501,-7.507,-7.996,-8.545
0.095,-0.092,0.507,-5.798,-6.775,-7.019
0.101,-0.092,0.513,-3.601,-5.249,-6.042
0.100,-0.093,0.511,-1.709,-3.845,-5.249
0.097,-0.090,0.517,0.732,-2.502,-4.700
0.095,-0.091,0.520,1.770,-0.549,-3.845
0.092,-0.092,0.523,3.052,-0.122,-3.601
0.089,-0.090,0.522,3.357,1.099,-2.808
0.088,-0.087,0.521,3.662,2.197,-1.953
0.089,-0.083,0.518,4.089,2.563,-1.465
0.085,-0.079,0.514,3.601,2.808,-1.038
0.083,-0.074,0.514,3.357,2.747,-0.488
0.074,-0.068,0.510,3.052,2.197,-0.671
0.074,-0.059,0.510,2.991,1.770,-0.549
0.070,-0.053,0.512,2.319,0.854,-0.427
0.070,-0.054,0.515,1.831,1.038,-0.916
0.071,-0.056,0.524,1.282,0.549,-1.404
0.071,-0.057,0.523,0.793,0.793,-1.953
0.071,-0.059,0.525,15.564,0.610,-2.930
0.071,-0.065,0.521,-0.427,0.854,-2.869
0.078,-0.068,0.520,-0.610,1.160,-2.380
0.075,-0.066,0.518,-0.977,1.099,-2.441
0.074,-0.063,0.517,-1.343,0.549,-2.258
0.074,-0.061,0.511,-1.343,0.671,-2.258
0.072,-0.061,0.513,-1.404,0.977,-2.625
0.071,-0.062,0.510,-1.282,0.916,-2.747
0.070,-0.065,0.505,-1.709,0.427,-3.296
0.070,-0.064,0.505,-1.404,0.000,-3.418
0.072,-0.066,0.506,-1.282,-0.549,-3.723

0.287,0.359,1.702,-16.541,13.550,169.312
0.264,0.467,1.707,-7.568,14.099,152.344
0.321,0.370,1.769,3.784,23.499,144.592
0.277,0.350,1.728,2.258,41.382,152.466
0.341,0.501,1.722,2.319,42.236,159.729
0.362,0.552,1.729,4.639,36.682,152.283
0.328,0.640,1.754,2.808,36.133,147.095
0.311,0.720,1.835,-4.211,39.246,142.273
0.302,0.764,1.920,-13.733,47.852,137.512
0.312,0.787,1.965,-18.005,55.847,130.188
0.326,0.801,1.992,-17.761,69.885,123.901
0.345,0.829,1.983,-15.686,80.566,117.004
0.367,0.848,1.957,-12.512,94.971,111.389
0.370,0.867,1.922,-10.132,104.004,107.788
0.381,0.897,1.888,-9.216,111.755,103.210
0.370,0.918,1.840,-10.254,117.981,99.426
0.353,0.929,1.797,-12.817,124.084,95.093
0.345,0.940,1.757,-14.954,128.418,91.675
0.339,0.940,1.724,-14.954,133.423,86.731
0.338,0.927,1.689,-15.137,139.465,83.252
0.334,0.908,1.659,-12.756,145.020,79.651
0.334,0.901,1.616,-11.902,151.672,76.904
0.348,0.915,1.576,-10.010,158.081,74.341
0.353,0.928,1.505,-8.911,164.368,72.205
0.347,0.962,1.444,-8.911,168.213,69.214
0.338,1.001,1.351,-9.216,170.593,63.354
0.330,1.042,1.322,-10.681,172.974,57.068
0.318,1.064,1.272,-12.390,174.744,47.729
0.331,1.071,1.223,-13.977,176.086,38.940
0.344,1.060,1.199,-16.724,179.016,29.114
0.356,1.031,1.149,-19.409,182.922,21.606
0.357,0.988,1.092,-20.386,184.937,13.916
0.358,0.968,1.029,-21.912,185.669,8.423
0.362,0.951,0.977,-23.071,186.157,1.587
0.356,0.929,0.926,-23.865,186.157,-4.333
0.352,0.760,0.802,-20.264,197.632,-28.320
0.348,0.732,0.753,-17.822,199.829,-32.410
0.348,0.719,0.688,-16.663,201.904,-36.316
0.339,0.709,0.625,-15.747,203.308,-40.405
0.322,0.698,0.545,-14.771,202.637,-46.692
0.307,0.688,0.488,-12.756,199.768,-52.856
0.298,0.673,0.434,-9.338,195.923,-61.035
0.296,0.649,0.393,-3.967,192.810,-68.970
0.303,0.621,0.371,1.343,189.697,-77.942
0.309,0.581,0.360,8.850,187.683,-84.473
0.323,0.551,0.354,15.137,186.401,-91.370
0.341,0.521,0.349,21.729,184.998,-95.581
0.360,0.486,0.350,26.428,184.326,-99.182
0.372,0.462,0.350,30.762,184.082,-101.257
0.379,0.446,0.341,33.142,184.631,-103.577
0.382,0.433,0.324,34.790,184.753,-105.652
0.375,0.396,0.309,36.743,184.082,-107.666
0.354,0.375,0.294,38.452,184.326,-108.215
0.334,0.368,0.284,38.147,184.753,-108.154
0.321,0.377,0.260,36.072,186.401,-108.521
0.282,0.388,0.209,32.776,186.951,-125.000
0.307,0.397,0.127,28.076,185.547,-110.596
0.306,0.401,0.094,23.743,182.861,-110.901
0.306,0.396,0.048,20.386,178.894,-111.572
0.303,0.383,0.000,16.174,174.561,-111.694
0.291,0.363,-0.034,13.550,170.349,-111.938
0.257,0.259,-0.162,8.606,152.527,-112.976
0.250,0.239,-0.210,6.042,145.630,-112.244
0.240,0.212,-0.249,3.418,137.878,-111.755
0.224,0.158,-0.281,0.366,127.380,-111.694
0.216,0.158,-0.288,-1.831,118.164,-111.938
0.209,0.138,-0.286,-3.601,108.459,-112.244
0.199,0.115,-0.281,-5.432,101.135,-112.000
0.198,0.089,-0.284,-6.287,92.834,-111.755
0.194,0.052,-0.285,-6.104,86.609,-110.107
0.196,0.026,-0.273,-4.395,79.285,-108.337
0.196,0.004,-0.252,-1.892,74.890,-105.835
0.190,-0.014,-0.232,2.075,69.885,-103.333
0.187,-0.031,-0.213,4.395,66.406,-100.403
0.183,-0.042,-0.185,9.277,64.636,-98.572
0.179,-0.057,-0.165,14.526,64.270,-97.046
0.173,-0.069,-0.150,21.973,65.674,-96.191
0.161,-0.084,-0.147,28.015,66.895,-94.788
0.151,-0.091,-0.149,35.828,68.848,-93.384
0.155,-0.087,-0.154,43.945,69.885,-92.773
0.155,-0.074,-0.173,52.551,72.266,-92.285
0.157,-0.059,-0.191,59.387,73.608,-92.407
0.150,-0.058,-0.211,68.359,74.646,-92.529
0.127,-0.054,-0.223,75.684,74.829,-92.712
0.111,-0.051,-0.233,80.872,74.890,-93.079
0.076,-0.064,-0.305,58.411,65.063,-93.079
0.083,-0.075,-0.339,47.241,58.594,-90.637
0.101,-0.084,-0.374,30.884,50.476,-88.257
0.116,-0.101,-0.410,16.602,43.823,-84.167
0.115,-0.113,-0.456,-0.549,33.447,-80.505
0.117,-0.132,-0.492,-11.414,24.719,-76.477
0.113,-0.146,-0.528,-22.888,13.794,-73.120
0.115,-0.166,-0.538,-30.579,5.249,-69.824
0.115,-0.219,-0.547,-35.278,-3.296,-66.467
0.109,-0.209,-0.551,-36.377,-9.399,-62.622
0.110,-0.239,-0.550,-36.438,-14.771,-59.143
0.103,-0.266,-0.552,-34.668,-19.348,-55.420
0.098,-0.294,-0.558,-29.053,-22.827,-52.185
0.096,-0.307,-0.564,-22.278,-25.818,-48.096
0.101,-0.304,-0.570,-12.817,-27.710,-44.983
0.103,-0.304,-0.577,-4.028,-29.602,-41.626
0.110,-0.298,-0.590,7.690,-31.189,-37.964
0.114,-0.292,-0.612,17.761,-33.142,-34.668
0.117,-0.278,-0.636,28.931,-35.706,-31.494
0.110,-0.267,-0.658,39.124,-39.795,-29.663
0.099,-0.259,-0.670,46.265,-43.701,-28.259
0.121,-0.263,-0.754,55.359,-63.782,-19.165
0.127,-0.255,-0.805,45.227,-74.646,-16.113
0.137,-0.260,-0.840,34.241,-86.670,-12.390
0.143,-0.270,-0.868,19.958,-103.271,-8.789
0.161,-0.279,-0.885,7.874,-120.667,-4.883
0.177,-0.290,-0.897,-4.944,-134.155,-2.014
0.202,-0.303,-0.901,-13.245,-150.513,1.587
0.225,-0.322,-0.905,-18.982,-161.926,4.639
0.256,-0.333,-0.916,-21.484,-176.392,8.362
0.284,-0.337,-0.929,-21.057,-188.843,11.047
0.313,-0.338,-0.968,-18.738,-203.552,13.672
0.339,-0.343,-0.921,-14.099,-216.797,15.564
0.373,-0.350,-0.882,-9.460,-230.835,17.029
0.433,-0.361,-0.845,-2.075,-241.943,18.433
0.443,-0.371,-0.801,4.944,-252.380,21.057
0.485,-0.388,-0.767,14.282,-262.146,24.048
0.517,-0.399,-0.724,22.766,-271.301,27.039
0.551,-0.403,-0.692,33.997,-279.114,30.457
0.578,-0.403,-0.639,43.823,-287.415,33.386
0.608,-0.409,-0.589,55.908,-294.983,37.415
0.729,-0.414,-0.435,92.224,-327.759,60.669
0.747,-0.396,-0.360,97.473,-341.370,67.749
0.766,-0.372,-0.269,99.060,-353.760,75.500
0.780,-0.354,-0.147,97.290,-367.126,82.092
0.800,-0.329,-0.041,93.018,-376.709,89.661
0.816,-0.308,0.079,87.585,-386.353,97.046
0.836,-0.272,0.170,80.078,-394.348,106.567
0.858,-0.233,0.300,71.777,-406.494,115.540
0.875,-0.159,0.439,60.913,-417.175,140.137
0.880,-0.082,0.643,49.072,-430.115,133.545
0.877,0.008,0.845,32.715,-439.087,138.428
0.881,0.069,1.095,19.958,-445.190,141.907
0.932,0.133,1.323,7.019,-442.932,142.517
0.941,0.183,1.568,-0.549,-429.382,142.639
0.940,0.268,1.740,-2.747,-416.504,139.465
0.913,0.335,1.919,-1.770,-399.658,132.385
0.881,0.427,2.071,2.747,-385.193,124.084
0.848,0.505,2.241,8.301,-369.263,111.328
0.824,0.569,2.455,14.038,-347.351,98.267
0.797,0.621,2.607,18.921,-324.585,80.688
0.792,0.614,2.845,27.039,-293.335,65.552
1.052,0.705,4.000,-32.166,-208.923,35.889
0.593,0.541,2.626,15.198,-205.322,30.212
0.569,0.427,2.486,53.223,-123.779,17.273
0.554,0.451,2.454,77.026,-112.732,6.531
0.554,0.478,2.454,71.533,-101.135,1.282
0.520,0.424,2.420,51.453,-82.031,1.221
0.474,0.396,2.355,47.485,-65.796,10.742
0.450,0.397,2.285,38.086,-52.307,4.517
0.422,0.389,2.162,28.748,-40.955,9.094
0.399,0.365,2.065,11.963,-34.485,12.390
0.378,0.353,1.967,-5.493,-32.166,3.723
0.255,0.341,1.853,-23.621,-34.729,9.705
0.368,0.352,1.809,-41.809,-37.659,20.020
0.453,0.299,1.874,-56.274,-30.884,16.052
0.261,0.336,1.665,-63.782,-43.762,23.071
0.276,0.298,1.656,-56.824,-45.105,4.761
0.363,0.191,1.780,-60.974,-26.611,9.949
0.393,0.218,1.752,-66.284,11.536,26.672
0.307,0.210,1.602,-60.181,18.494,30.334
0.254,0.218,1.466,-52.002,13.672,19.409
0.231,0.286,1.375,-45.898,6.042,9.277
0.235,0.320,1.364,-44.189,1.892,4.883
0.266,0.301,1.396,-46.387,2.808,-14.282
0.298,0.275,1.425,-50.293,12.207,-5.493
0.305,0.240,1.416,-51.880,20.691,-6.714
0.305,0.221,1.372,-49.866,32.227,-10.437
0.304,0.201,1.315,-48.645,40.588,-15.015
0.296,0.183,1.275,-49.683,46.936,-15.564
0.291,0.170,1.221,-48.828,53.589,-18.372
0.289,0.151,1.173,-48.950,57.983,-22.400
0.292,0.129,1.107,-49.133,64.148,-23.071
0.293,0.095,1.057,-49.377,67.444,-22.705
0.303,0.083,0.995,-50.659,72.449,-22.278
0.300,0.053,0.931,-51.147,75.012,-19.897
0.290,0.018,0.858,-50.659,77.209,-19.958
0.272,-0.010,0.816,-49.011,78.369,-19.287
0.263,-0.031,0.762,-47.913,79.468,-16.296
0.250,-0.061,0.718,-48.462,79.529,-13.550
0.239,-0.079,0.661,-47.791,80.505,-9.888
0.223,-0.086,0.611,-47.302,80.444,-3.723
0.158,-0.094,0.409,-39.490,71.411,4.028
0.156,-0.096,0.375,-36.560,68.481,5.432
0.145,-0.099,0.343,-32.471,65.369,7.751
0.135,-0.104,0.303,-28.931,60.547,8.484
0.130,-0.097,0.284,-23.071,56.580,9.705
0.139,-0.097,0.270,-1.038,53.284,8.789
0.096,-0.105,0.253,-7.629,50.720,8.179
0.107,-0.091,0.241,0.427,47.302,9.155
0.117,-0.068,0.257,8.118,45.593,10.437
0.125,-0.057,0.275,11.475,43.579,10.437
0.123,-0.043,0.287,15.381,42.664,10.315
0.111,-0.024,0.292,18.250,42.114,11.230
0.103,0.030,0.299,19.592,40.283,11.475
0.097,0.016,0.304,19.653,38.940,10.376
0.087,0.029,0.312,18.860,35.828,9.827
0.083,0.039,0.316,17.700,34.790,9.705
0.077,0.053,0.319,16.235,31.982,8.972
0.080,0.063,0.329,13.916,30.457,8.301
0.083,0.075,0.336,12.451,29.297,7.935
0.077,0.083,0.346,10.071,27.405,7.080
0.076,0.095,0.353,6.470,27.283,5.249
0.077,0.100,0.363,4.700,26.550,4.456
0.076,0.104,0.367,1.648,26.672,3.601
0.075,0.105,0.368,-1.648,25.391,1.770
0.073,0.099,0.370,-4.272,25.391,0.610
0.077,0.091,0.376,-5.432,24.231,-0.671
0.078,0.084,0.384,-5.737,25.146,-1.709
0.080,0.077,0.391,-5.676,26.428,-2.319
0.082,0.071,0.395,-5.188,27.161,-3.113
0.084,0.066,0.394,-4.272,28.137,-4.028
0.089,0.062,0.393,-3.845,28.320,-4.883
0.088,0.065,0.389,-5.127,29.114,-5.859
0.091,0.070,0.377,-6.653,29.053,-7.263
0.093,0.071,0.363,-7.935,28.137,-8.789
0.099,0.062,0.347,-9.338,26.184,-10.010
0.107,0.048,0.339,-10.376,24.292,-11.230
0.114,0.038,0.337,-10.986,21.790,-11.169
0.120,0.016,0.340,-11.841,19.897,-11.108
0.120,0.001,0.350,-12.268,17.822,-10.925
0.119,-0.017,0.367,-12.329,17.334,-10.132
0.118,-0.026,0.381,-12.634,18.127,-9.216
0.115,-0.034,0.384,-12.695,19.348,-8.606
0.117,-0.044,0.382,-12.634,20.325,-8.057
0.122,-0.053,0.378,-12.207,20.630,-7.080
0.123,-0.054,0.375,-12.512,21.179,-6.348
0.119,-0.062,0.370,-11.658,20.142,-5.432
0.116,-0.062,0.366,-10.864,19.836,-4.395
0.110,-0.067,0.369,-9.888,18.921,-3.723
0.105,-0.070,0.375,-8.179,17.761,-2.930
0.103,-0.077,0.382,-6.531,18.494,-1.953
0.102,-0.077,0.390,-5.066,18.555,-0.854
0.100,-0.069,0.392,-3.540,19.470,0.000
0.094,-0.061,0.394,-1.953,19.714,1.282
0.090,-0.051,0.386,-0.549,19.531,1.770
0.089,-0.042,0.385,-0.610,18.311,2.686
0.086,-0.030,0.381,-0.610,18.127,3.174
0.089,-0.019,0.384,-1.160,16.907,3.967
0.088,-0.006,0.386,-2.808,15.137,4.517
0.086,0.004,0.388,-4.333,13.000,4.639
0.084,0.015,0.391,-5.981,11.230,5.066
0.083,0.018,0.398,-6.897,9.155,5.310
0.083,0.025,0.403,-8.545,7.629,5.493
0.084,0.040,0.410,-10.193,6.775,5.554
0.076,0.056,0.415,-10.986,4.700,4.944
0.073,0.076,0.415,-12.512,4.150,3.296
0.064,0.084,0.417,-14.160,2.502,1.099
0.064,0.088,0.422,-16.113,1.404,-0.732
0.064,0.082,0.425,-17.761,-15.320,-3.235
0.073,0.047,0.448,-16.113,-2.380,-9.155
0.073,0.036,0.451,-14.954,-2.808,-10.132
0.076,0.027,0.455,-13.611,-2.441,-10.315
0.076,0.017,0.455,-12.512,-2.991,-11.047
0.077,0.009,0.455,-12.085,-2.441,-11.902
0.083,-0.001,0.459,-10.864,-3.296,-11.841
0.086,-0.011,0.463,-9.827,-3.479,-11.902
0.086,-0.019,0.468,-8.545,-3.845,-11.475
0.094,-0.027,0.470,-7.263,-3.723,-10.620
0.094,-0.032,0.470,-5.310,-3.845,-9.949
0.099,-0.035,0.476,-3.784,-3.418,-9.521
0.095,-0.039,0.487,-0.916,-3.418,-8.789
0.102,-0.041,0.502,0.732,-2.808,-7.629
0.101,-0.035,0.523,1.648,-2.869,-6.592
0.097,-0.027,0.541,0.671,-1.221,-5.249
0.092,-0.017,0.554,-0.916,-0.610,-4.700
0.088,-0.008,0.565,-3.601,0.671,-4.211
0.085,0.001,0.568,-5.005,0.610,-4.211
0.088,0.006,0.574,-6.836,2.014,-4.028
0.094,0.011,0.575,-8.972,2.747,-3.723
0.096,0.012,0.576,-9.521,3.906,-3.357
0.096,0.013,0.572,-10.010,3.967,-2.686
0.090,0.016,0.569,-9.705,5.371,-2.441
0.085,0.019,0.570,-8.728,5.554,-2.686
0.081,0.024,0.568,-8.362,7.263,-3.052
0.078,0.024,0.568,-7.935,7.996,-3.662
0.076,0.026,0.567,-7.507,8.911,-4.333
0.075,0.030,0.562,-8.118,8.972,-4.944
0.074,0.026,0.559,-9.338,8.850,-5.249
0.067,0.025,0.553,-11.047,8.606,-5.798
0.065,0.021,0.550,-13.123,7.751,-5.920
0.061,0.019,0.546,-30.640,6.592,-5.615
0.059,0.021,0.544,-17.029,5.676,-5.859
0.057,0.018,0.540,-19.165,4.944,-5.798
0.059,0.015,0.536,-20.203,4.089,-5.737
0.058,0.013,0.534,-19.470,3.662,-6.470
0.060,0.004,0.533,-19.531,3.235,-6.470
0.063,-0.003,0.500,-17.944,4.150,-6.348
0.065,-0.005,0.527,-16.174,3.784,-6.470
0.064,-0.009,0.526,-15.381,4.395,-5.920
0.063,-0.008,0.522,-13.062,4.822,-5.798
0.060,-0.009,0.517,-11.353,4.639,-6.042
0.063,-0.003,0.517,-9.888,3.357,-6.348
0.064,-0.003,0.518,-8.728,3.601,-6.592
0.065,-0.002,0.516,-8.057,3.174,-6.775

0.544,-0.840,-1.190,64.270,-157.043,-105.774
0.600,-0.900,-1.095,64.392,-172.607,-93.140
0.652,-0.928,-1.026,64.087,-186.523,-77.271
0.674,-0.942,-0.946,62.866,-197.998,-65.002
0.692,-0.946,-0.864,60.486,-211.731,-52.368
0.708,-0.950,-0.761,55.908,-222.961,-43.640
0.740,-0.951,-0.655,50.415,-236.694,-34.851
0.787,-0.977,-0.490,41.504,-247.620,-29.480
0.860,-1.023,-0.306,35.339,-257.019,-22.522
0.919,-1.098,-0.157,25.879,-261.108,-0.427
0.975,-1.175,-0.024,18.066,-263.062,-6.714
1.002,-1.261,0.109,10.010,-263.855,2.502
1.017,-1.315,0.232,2.625,-265.137,14.709
1.020,-1.353,0.327,-6.897,-268.005,23.743
1.035,-1.399,0.495,-14.648,-270.630,33.569
1.044,-1.458,0.625,-22.278,-271.118,40.894
1.056,-1.531,0.758,-25.574,-267.700,49.622
1.056,-1.631,0.896,-25.391,-261.292,58.228
1.039,-1.712,0.976,-21.179,-250.305,71.594
0.816,-1.786,1.071,18.555,-221.863,133.179
0.723,-1.751,1.113,32.593,-218.262,145.203
0.685,-1.712,1.163,62.134,-210.388,158.691
0.643,-1.629,1.185,63.477,-201.294,169.800
0.601,-1.527,1.173,74.707,-192.566,181.091
0.538,-1.387,1.154,83.679,-189.636,190.125
0.527,-1.262,1.177,84.961,-194.214,200.989
0.490,-1.109,1.284,78.796,-200.378,209.167
0.463,-0.974,1.496,69.153,-207.153,216.614
0.451,-0.844,1.642,55.237,-208.801,219.849
0.445,-0.769,1.839,44.861,-203.674,221.436
0.445,-0.700,1.959,35.889,-194.702,222.046
0.432,-0.648,2.036,31.433,-182.312,222.473
0.413,-0.592,2.084,25.940,-166.687,223.328
0.373,-0.511,2.099,19.592,-141.357,224.365
0.343,-0.427,2.133,8.667,-149.231,223.999
0.328,-0.330,2.200,-2.869,-146.362,221.619
0.335,-0.280,2.321,-14.771,-141.418,217.651
0.358,-0.250,2.430,-22.217,-133.423,212.158
0.353,-0.346,2.431,-27.466,-62.927,200.256
0.322,-0.341,2.358,-27.283,-53.162,198.730
0.297,-0.336,2.326,-28.687,-45.654,196.838
0.280,-0.352,2.332,-31.006,-41.626,195.679
0.288,-0.382,2.364,-33.020,-33.630,195.618
0.295,-0.410,2.404,-34.790,-23.865,197.693
0.300,-0.418,2.405,-34.241,-7.690,201.843
0.311,-0.392,2.357,-30.640,6.470,206.421
0.326,-0.338,2.277,-25.391,20.264,211.792
0.327,-0.229,2.143,-19.653,32.227,214.966
0.310,-0.145,2.034,-15.564,37.842,216.370
0.289,-0.048,1.934,-13.062,39.429,214.722
0.268,0.025,1.904,-12.512,39.185,209.595
0.262,0.050,1.912,-10.315,40.527,205.444
0.273,0.061,1.926,-9.033,45.288,201.599
0.285,0.071,1.930,-6.714,54.077,199.280
0.276,0.086,1.901,-4.028,63.049,196.838
0.268,0.107,1.844,-1.160,71.472,195.312
0.254,0.146,1.786,2.014,78.369,193.054
0.259,0.185,1.728,3.723,82.031,189.392
0.277,0.232,1.679,6.165,85.205,187.500
0.299,0.264,1.646,9.094,87.708,184.570
0.301,0.289,1.594,14.404,91.187,182.495
0.133,0.443,1.475,17.456,89.417,182.678
0.299,0.368,1.494,21.667,91.492,178.955
0.226,0.447,1.468,24.048,88.196,180.481
0.319,0.631,1.589,33.813,103.333,168.213
0.306,0.495,1.499,39.063,111.511,161.499
0.212,0.615,1.367,49.683,100.098,170.837
0.236,0.772,1.406,53.955,87.036,165.161
0.342,0.956,1.638,56.274,122.009,121.887
0.299,0.968,1.571,58.838,127.075,113.647
0.294,1.045,1.545,63.538,127.991,107.361
0.333,1.077,1.582,66.406,131.287,97.961
0.347,1.116,1.625,69.946,140.259,88.440
0.365,1.150,1.651,75.562,150.574,77.087
0.378,1.148,1.653,79.712,165.771,62.805
0.384,1.122,1.608,83.740,175.598,52.307
0.397,1.104,1.550,85.144,183.594,41.199
0.409,1.093,1.467,84.473,190.857,33.813
0.417,1.078,1.390,83.130,195.740,25.635
0.419,1.067,1.300,79.956,199.097,18.066
0.417,1.040,1.228,76.660,201.599,9.949
0.422,1.007,1.139,72.998,204.224,4.456
0.432,0.979,1.056,69.153,206.848,-0.305
0.441,0.967,0.962,65.857,208.008,-5.493
0.443,0.962,0.843,62.317,207.214,-9.338
0.434,0.956,0.753,59.204,204.163,-14.832
0.417,0.918,0.669,53.589,202.637,-19.409
0.388,0.926,0.609,51.880,193.970,-26.184
0.381,0.902,0.559,47.729,190.369,-32.654
0.383,0.868,0.520,44.128,187.927,-40.466
0.391,0.832,0.477,43.213,188.049,-46.875
0.397,0.797,0.434,42.847,188.049,-54.138
0.389,0.759,0.372,43.396,187.622,-59.998
0.344,0.715,0.320,43.213,184.082,-64.514
0.367,0.682,0.294,41.992,178.711,-69.458
0.371,0.623,0.304,41.260,172.913,-74.158
0.388,0.564,0.367,42.053,169.861,-78.674
0.406,0.488,0.388,43.457,169.434,-81.909
0.427,0.437,0.417,45.837,172.668,-84.778
0.443,0.396,0.427,49.072,177.551,-86.182
0.461,0.366,0.412,51.697,181.091,-86.792
0.467,0.340,0.384,54.077,184.753,-86.853
0.468,0.267,0.327,46.021,176.514,-83.130
0.450,0.242,0.336,42.053,175.110,-81.787
0.436,0.221,0.338,36.560,175.110,-80.933
0.424,0.199,0.327,31.372,176.147,-79.590
0.414,0.204,0.300,27.100,176.331,-78.857
0.403,0.233,0.272,20.691,175.659,-78.796
0.386,0.274,0.246,15.198,172.974,-80.017
0.373,0.311,0.234,9.399,170.044,-83.313
0.352,0.322,0.238,5.066,165.894,-88.074
0.340,0.310,0.252,-0.061,164.917,-91.919
0.332,0.292,0.265,-3.540,165.039,-96.741
0.331,0.274,0.270,-6.836,168.945,-99.792
0.341,0.257,0.257,-8.911,173.035,-103.455
0.350,0.249,0.212,-9.216,179.565,-106.750
0.351,0.241,0.162,-8.728,183.533,-110.046
0.357,0.231,0.085,-6.470,187.195,-112.671
0.354,0.224,0.022,-3.052,187.866,-115.540
0.352,0.212,-0.034,1.831,187.073,-118.042
0.346,0.185,-0.075,7.019,186.646,-120.544
0.347,0.147,-0.121,30.518,186.035,-122.620
0.359,0.092,-0.170,26.489,186.340,-123.779
0.369,0.047,-0.233,36.743,186.218,-123.352
0.368,0.001,-0.288,51.636,184.998,-121.887
0.354,-0.030,-0.344,63.782,181.030,-118.896
0.328,-0.051,-0.372,75.745,176.880,-115.906
0.266,-0.055,-0.346,99.854,157.593,-108.704
0.257,-0.067,-0.323,99.731,155.762,-106.812
0.239,-0.075,-0.330,92.896,154.663,-103.821
0.219,-0.070,-0.376,80.933,150.452,-100.830
0.193,-0.062,-0.432,60.669,143.311,-96.985
0.178,-0.064,-0.499,42.053,131.470,-94.055
0.166,-0.057,-0.551,18.860,119.934,-90.637
0.156,-0.050,-0.601,-0.061,105.225,-87.158
0.151,-0.057,-0.630,-20.691,93.018,-82.703
0.147,-0.061,-0.658,-35.034,79.529,-78.796
0.136,-0.069,-0.670,-48.889,68.665,-74.097
0.127,-0.077,-0.673,-58.533,59.021,-70.251
0.113,-0.089,-0.676,-63.354,52.917,-66.345
0.100,-0.091,-0.689,-66.223,48.462,-63.416
0.088,-0.087,-0.714,-66.101,45.349,-60.669
0.083,-0.078,-0.755,-62.561,43.030,-59.021
0.084,-0.060,-0.793,-57.861,39.124,-57.190
0.087,-0.046,-0.841,-50.049,34.302,-56.580
0.094,-0.033,-0.870,-42.480,29.541,-56.274
0.124,-0.032,-0.978,-1.099,11.230,-66.589
0.141,-0.039,-1.012,11.414,5.188,-69.397
0.167,-0.051,-1.037,20.264,-2.625,-72.754
0.184,-0.075,-1.068,29.846,-11.108,-75.439
0.215,-0.104,-1.089,35.767,-21.912,-77.820
0.242,-0.142,-1.105,41.809,-32.288,-78.918
0.277,-0.182,-1.121,46.692,-45.105,-79.773
0.300,-0.246,-1.128,52.429,-56.152,-78.613
0.330,-0.304,-1.131,55.420,-69.763,-75.317
0.346,-0.368,-1.117,57.617,-81.238,-70.557
0.363,-0.421,-1.102,56.702,-94.055,-63.538
0.362,-0.487,-1.094,53.833,-103.577,-56.274
0.360,-0.534,-1.114,50.720,-112.915,-46.082
0.363,-0.559,-1.152,46.753,-119.995,-37.598
0.373,-0.564,-1.222,45.227,-131.348,-27.100
0.385,-0.556,-1.294,43.213,-142.395,-17.578
0.401,-0.537,-1.366,42.664,-159.424,-9.277
0.433,-0.507,-1.412,42.358,-176.331,-0.732
0.459,-0.481,-1.432,42.480,-197.754,5.859
0.510,-0.461,-1.431,43.457,-215.698,13.245
0.707,-0.379,-1.458,59.082,-310.547,39.917
0.746,-0.354,-1.438,68.176,-321.594,44.495
0.799,-0.327,-1.370,77.881,-343.872,49.561
0.855,-0.319,-1.241,89.844,-367.493,52.612
0.942,-0.344,-1.133,99.670,-385.498,58.289
1.033,-0.370,-1.014,114.502,-401.184,66.467
1.110,-0.393,-0.940,127.563,-413.818,79.468
1.130,-0.396,-0.866,140.930,-430.542,92.041
1.127,-0.392,-0.801,149.292,-447.144,108.765
1.120,-0.323,-0.696,155.762,-470.215,121.033
1.140,-0.278,-0.570,156.250,-492.065,132.202
1.178,-0.191,-0.380,152.649,-517.517,139.954
1.255,-0.160,-0.186,145.447,-537.415,149.353
1.323,-0.108,0.077,133.911,-557.129,157.532
1.405,-0.042,0.299,122.498,-569.580,166.748
1.450,0.028,0.571,104.614,-579.041,175.293
1.475,0.152,0.837,85.510,-585.632,183.472
1.349,0.884,2.721,-42.725,-576.599,147.583
1.288,0.936,3.327,-81.604,-545.227,124.146
1.216,0.923,3.745,-109.619,-505.188,92.712
1.147,0.856,4.000,-136.536,-443.665,67.200
1.049,0.735,4.000,-150.635,-388.428,40.100
0.973,0.612,3.997,-157.288,-329.041,21.606
0.907,0.450,3.914,-151.917,-288.940,4.395
0.868,0.305,3.753,-137.024,-251.404,-5.920
0.826,0.136,3.676,-106.506,-222.351,-13.062
0.778,-0.022,3.652,-71.838,-182.922,-15.686
0.705,-0.074,3.529,-26.428,-143.066,-13.611
0.639,-0.072,3.356,25.696,-95.886,-11.475
0.555,-0.024,3.162,48.157,-61.584,-10.986
0.459,0.039,2.895,72.998,-33.447,-11.414
0.348,0.113,2.715,90.820,-19.531,-12.939
0.266,0.171,2.542,92.590,-10.132,-16.113
0.163,0.213,2.413,81.787,-4.272,-19.226
0.130,0.223,2.170,49.866,-5.127,-22.644
0.121,0.215,2.131,41.016,-1.587,-25.085
0.175,0.178,2.056,16.113,5.310,-34.302
-0.090,0.116,1.736,-13.672,-3.235,-21.301
0.128,0.213,1.745,-36.316,-3.113,-35.095
0.161,0.033,1.660,-57.495,9.216,-44.312
0.012,-0.048,1.370,-65.063,10.132,-24.597
-0.057,0.041,1.194,-70.740,-7.996,-13.245
0.137,0.010,1.330,-72.266,-4.089,-32.959
0.156,-0.027,1.239,-65.491,11.292,-36.255
0.173,-0.071,1.117,-56.396,18.433,-38.635
0.193,-0.098,0.975,-32.471,22.705,-40.771
0.190,-0.139,0.875,-36.255,23.254,-41.626
0.187,-0.167,0.793,-25.208,22.583,-40.710
0.189,-0.185,0.760,-13.550,21.851,-39.917
0.187,-0.212,0.719,-4.089,21.301,-38.940
0.192,-0.244,0.697,6.104,20.386,-37.231
0.187,-0.266,0.680,11.963,18.860,-32.654
0.218,-0.275,0.668,16.541,16.846,-27.649
0.180,-0.266,0.630,15.930,13.550,-21.301
0.178,-0.255,0.661,13.550,7.629,-14.648
0.198,-0.220,0.715,8.057,3.906,-7.629
0.210,-0.210,0.717,0.488,1.160,-3.784
0.199,-0.194,0.731,-4.089,-1.404,2.502
0.187,-0.176,0.749,-9.705,-3.479,7.751
0.183,-0.143,0.766,-13.916,-5.066,13.428
0.186,-0.112,0.781,-18.188,-4.028,16.846
0.176,-0.072,0.788,-19.775,-2.014,19.958
0.165,-0.027,0.785,-18.555,0.916,20.386
0.138,0.020,0.784,-15.503,2.319,19.531
0.130,0.088,0.798,-12.512,5.188,18.799
0.129,0.104,0.816,-11.108,8.972,16.418
0.135,0.135,0.824,-10.864,13.916,12.695
0.140,0.162,0.826,-10.254,17.883,8.362
0.138,0.159,0.822,-10.132,22.522,4.700
0.141,0.147,0.808,-11.414,26.733,1.770
0.140,0.129,0.755,-13.123,31.372,-0.854
0.135,0.113,0.744,-15.076,34.363,-2.258
0.131,0.098,0.697,-16.235,37.415,-3.540
0.127,0.081,0.635,-16.235,38.452,-3.906
0.118,0.069,0.581,-15.320,39.124,-3.296
0.108,0.061,0.515,-13.062,39.307,-3.418
0.088,0.051,0.465,-10.498,38.452,-3.174
0.075,0.043,0.417,-5.188,36.987,-3.540
0.066,0.039,0.390,-1.038,36.011,-4.211
0.070,0.033,0.364,2.686,34.241,-4.639
0.070,0.021,0.342,4.517,32.593,-4.761
0.072,0.012,0.328,7.019,30.090,-4.517
0.073,-0.006,0.320,7.202,28.381,-3.845
0.070,-0.016,0.311,5.859,24.292,-2.747
0.066,-0.014,0.303,2.991,21.423,-1.587
0.072,-0.003,0.297,-0.854,16.418,-0.183
0.076,0.015,0.298,-5.493,12.817,0.244
0.087,0.026,0.303,-9.827,6.226,-0.183
0.091,0.032,0.328,-13.672,3.052,-0.854
0.102,0.024,0.357,-16.235,-0.732,-1.343
0.110,0.013,0.394,-18.127,-1.770,-2.258
0.103,-0.014,0.436,-16.785,3.357,-3.601
0.103,-0.010,0.424,-15.564,4.578,-4.089
0.104,-0.010,0.417,-13.733,6.226,-5.432
0.108,-0.019,0.415,-10.986,6.348,-6.592
0.115,-0.040,0.413,-8.850,7.507,-7.202
0.116,-0.062,0.410,-6.592,8.728,-7.507
0.115,-0.076,0.408,-4.028,9.705,-6.226
0.118,-0.087,0.402,-2.197,10.376,-4.761
0.122,-0.087,0.389,-0.793,11.597,-3.540
0.116,-0.086,0.374,0.488,10.071,-1.282
0.117,-0.081,0.366,1.343,9.338,0.549
0.116,-0.066,0.366,1.648,6.714,2.075
0.114,-0.051,0.367,0.977,5.188,3.601
0.114,-0.022,0.370,0.427,3.235,4.700
0.110,0.029,0.387,-1.343,0.610,4.761
0.116,0.025,0.413,-3.967,-1.892,4.028
0.113,0.041,0.448,-6.409,-4.089,3.052
0.110,0.043,0.486,-7.385,-4.028,1.465
0.114,0.041,0.523,-9.644,-4.089,0.305
0.115,0.036,0.540,-10.864,-2.197,-0.610
0.115,0.033,0.545,-11.169,-0.305,-0.793
0.112,0.022,0.539,-12.207,1.709,-1.526
0.110,0.016,0.530,-12.512,2.441,-2.136
0.111,0.009,0.523,-13.245,3.235,-2.380
0.116,0.003,0.517,-13.367,3.052,-2.930
0.118,-0.009,0.512,-13.672,4.333,-2.869
0.120,-0.022,0.505,-13.855,4.517,-2.563
0.121,-0.036,0.501,-13.672,5.981,-1.953
0.115,-0.055,0.494,-13.367,6.165,-1.160
0.113,-0.070,0.482,-12.390,7.996,0.488
0.105,-0.075,0.467,-11.108,8.545,3.052
0.105,-0.073,0.451,-10.315,9.521,4.517
0.101,-0.067,0.433,-9.949,9.521,6.409
0.096,-0.057,0.420,-9.644,8.179,8.057
0.090,-0.037,0.409,-9.949,6.042,8.911
0.087,-0.013,0.399,-11.902,4.089,9.216
0.081,0.014,0.392,-14.587,1.282,9.460
0.078,0.028,0.392,-17.700,-2.502,9.094
0.076,0.042,0.394,-19.348,-5.005,7.812
0.073,0.040,0.401,-20.996,-8.301,7.080
0.074,0.039,0.415,-22.583,-10.559,5.859
0.077,0.033,0.436,-23.865,-13.062,4.639
0.078,0.026,0.459,-23.010,-13.367,3.967

0.398,-1.462,0.766,-7.935,-188.049,52.612
0.416,-1.520,0.829,2.625,-195.984,57.739
0.439,-1.580,0.858,11.169,-188.477,66.895
0.446,-1.605,0.869,19.104,-184.082,76.965
0.447,-1.602,0.879,24.231,-182.922,90.576
0.444,-1.577,0.914,28.992,-185.486,102.112
0.466,-1.545,0.966,32.593,-186.768,114.624
0.501,-1.513,1.030,37.354,-186.584,123.840
0.540,-1.474,1.074,43.274,-183.105,135.071
0.555,-1.437,1.121,47.668,-178.955,145.935
0.543,-1.373,1.156,49.561,-177.673,157.471
0.505,-1.319,1.211,49.194,-180.420,171.936
0.439,-1.246,1.292,46.509,-183.655,183.838
0.446,-1.170,1.423,44.006,-186.279,195.435
0.454,-1.089,1.518,43.762,-184.021,202.026
0.494,-1.027,1.645,46.265,-175.110,207.886
0.533,-0.955,1.701,52.124,-163.757,213.013
0.568,-0.888,1.732,54.626,-150.269,220.093
0.567,-0.798,1.755,55.359,-141.968,226.807
0.553,-0.716,1.809,54.077,-137.451,236.145
0.553,-0.597,1.839,50.049,-135.498,243.408
0.588,-0.220,2.049,33.386,-100.403,263.611
0.561,-0.139,2.020,32.104,-88.989,265.564
0.517,-0.012,1.967,29.297,-77.576,266.052
0.457,0.091,1.933,25.879,-71.228,263.794
0.423,0.196,1.917,21.667,-66.406,259.888
0.395,0.292,1.920,18.311,-62.500,252.930
0.382,0.340,1.924,16.296,-56.091,246.155
0.429,0.435,1.859,15.137,-50.293,256.653
0.419,0.357,1.849,21.545,-38.574,227.905
0.321,0.428,1.843,19.836,-28.442,215.576
0.302,0.390,1.764,18.005,-18.188,215.271
0.277,0.373,1.735,15.076,-14.465,215.881
0.255,0.396,1.694,11.353,-13.794,216.431
0.312,0.449,1.657,8.179,-9.277,211.243
0.290,0.507,1.652,4.700,-7.751,202.698
-0.070,0.580,1.575,17.395,-8.850,198.975
0.329,0.422,1.685,9.094,-9.766,190.063
0.320,0.466,1.718,11.475,1.038,187.073
0.335,0.516,1.736,19.287,7.141,186.035
0.388,0.380,1.536,46.692,12.268,187.134
0.386,0.681,1.607,50.293,8.484,182.068
0.413,0.695,1.837,41.687,27.588,174.500
0.442,0.636,1.876,36.316,40.344,174.500
0.434,0.713,1.854,42.969,47.974,172.485
0.447,0.834,1.844,47.974,55.176,168.274
0.456,0.925,1.830,52.185,76.904,158.264
0.439,0.984,1.885,53.772,72.449,148.865
0.506,0.906,1.922,52.612,85.510,147.949
0.489,1.050,1.878,56.335,98.511,146.057
0.455,1.235,1.792,57.861,106.689,125.305
0.434,1.327,1.695,60.364,112.183,130.554
0.410,1.392,1.671,65.430,114.441,119.995
0.377,1.442,1.649,73.425,115.784,106.567
0.354,1.504,1.653,84.412,120.117,95.825
0.327,1.562,1.663,93.140,125.610,81.909
0.217,1.677,1.558,53.406,156.738,33.875
0.201,1.658,1.520,41.504,146.851,25.391
0.307,1.702,1.517,13.672,160.217,2.075
0.296,1.652,1.427,-2.258,171.326,1.465
0.278,1.578,1.307,-8.606,170.410,-12.085
0.269,1.524,1.194,-10.437,166.687,-24.109
0.263,1.464,1.144,-15.076,163.635,-31.250
0.269,1.406,1.094,-18.494,160.400,-37.048
0.291,1.313,1.072,-17.639,157.898,-42.847
0.206,1.305,1.039,-13.794,140.991,-50.354
0.360,1.234,1.094,-6.653,160.278,-58.533
0.262,1.099,0.934,0.549,161.865,-62.317
0.354,1.112,0.982,14.221,158.020,-67.627
0.428,1.058,0.983,19.775,170.471,-74.158
0.416,0.971,0.952,46.021,176.086,-75.928
0.373,0.938,0.866,44.373,178.162,-76.538
0.294,0.931,0.804,57.190,162.781,-77.698
0.327,0.948,0.865,67.505,153.381,-80.688
0.409,0.926,0.985,71.228,155.334,-84.290
0.439,0.881,1.005,75.317,164.185,-84.534
0.436,0.844,1.015,80.200,173.401,-86.182
0.419,0.821,1.004,82.153,181.458,-88.318
0.407,0.812,0.974,79.712,184.326,-91.797
0.408,0.805,0.919,73.120,185.181,-93.079
0.431,0.796,0.878,64.880,185.120,-94.971
0.464,0.778,0.852,56.946,185.120,-95.703
0.481,0.755,0.838,47.668,184.753,-96.558
0.480,0.739,0.802,41.138,185.364,-96.375
0.482,0.715,0.775,34.424,186.768,-96.741
0.490,0.707,0.723,29.785,190.369,-96.863
0.492,0.701,0.709,24.902,193.848,-96.924
0.495,0.698,0.524,3.052,201.599,-104.614
0.497,0.681,0.463,-4.639,201.904,-107.361
0.521,0.630,0.411,-14.282,203.552,-111.145
0.509,0.615,0.344,-22.461,203.796,-113.953
0.519,0.580,0.270,-31.860,201.599,-117.371
0.533,0.549,0.207,-39.978,202.026,-122.864
0.433,0.506,0.136,-45.898,200.073,-125.366
0.509,0.438,0.067,-47.852,197.571,-128.296
0.480,0.393,0.007,-46.509,191.528,-129.211
0.504,0.346,-0.020,-42.480,190.247,-129.761
0.499,0.298,-0.067,-35.950,186.523,-130.859
0.498,0.238,-0.094,-31.067,182.068,-132.324
0.494,0.192,-0.131,-24.902,179.077,-132.446
0.486,0.139,-0.175,-20.996,177.063,-132.507
0.471,0.093,-0.217,-18.250,172.363,-131.409
0.453,0.060,-0.244,-17.029,166.321,-129.761
0.435,0.046,-0.264,-15.991,157.654,-128.540
0.424,0.026,-0.264,-17.822,149.170,-127.441
0.367,-0.095,-0.199,-24.719,127.991,-114.685
0.352,-0.118,-0.188,-26.367,123.596,-111.633
0.333,-0.133,-0.188,-28.381,119.019,-107.544
0.319,-0.144,-0.184,-31.189,113.403,-104.309
0.321,-0.149,-0.177,-33.203,108.154,-100.098
0.322,-0.150,-0.162,-35.767,103.516,-96.680
0.323,-0.155,-0.154,-38.513,99.426,-93.323
0.320,-0.152,-0.156,-41.687,97.229,-91.003
0.317,-0.139,-0.170,-43.518,96.558,-88.806
0.321,-0.129,-0.191,-46.204,97.961,-88.196
0.317,-0.128,-0.225,-49.133,100.464,-87.891
0.303,-0.127,-0.270,-50.049,101.440,-86.731
0.286,-0.127,-0.315,-50.598,100.647,-84.473
0.272,-0.125,-0.362,-49.316,98.083,-80.505
0.269,-0.126,-0.434,-48.157,92.590,-74.646
0.275,-0.133,-0.444,-44.739,87.952,-69.092
0.273,-0.136,-0.477,-41.260,82.458,-62.012
0.257,-0.133,-0.532,-34.546,79.346,-57.312
0.141,-0.046,-0.666,-13.428,57.373,-52.368
0.117,-0.031,-0.661,-10.681,49.377,-53.650
0.094,-0.030,-0.652,-8.789,43.701,-55.420
0.078,-0.043,-0.646,-7.324,37.170,-57.983
0.071,-0.067,-0.641,-7.324,33.203,-60.547
0.072,-0.094,-0.646,-6.104,30.518,-62.134
0.070,-0.138,-0.645,-7.812,29.419,-62.256
0.056,-0.173,-0.658,-10.864,28.564,-60.791
0.032,-0.201,-0.691,-17.456,28.137,-57.556
0.013,-0.214,-0.755,-25.269,26.733,-54.138
-0.007,-0.210,-0.821,-31.921,24.353,-50.842
-0.022,-0.190,-0.924,-38.940,20.447,-48.767
-0.026,-0.172,-1.009,-43.274,13.916,-47.363
-0.033,-0.161,-1.099,-48.889,3.296,-46.814
-0.035,-0.154,-1.151,-51.208,-6.165,-45.776
-0.037,-0.151,-1.198,-54.016,-18.921,-46.326
-0.026,-0.150,-1.234,-55.908,-29.846,-46.631
0.025,-0.141,-1.285,-56.824,-38.025,-47.302
0.024,-0.133,-1.357,-55.542,-48.584,-47.913
0.051,-0.128,-1.426,-53.894,-58.350,-48.889
0.162,-0.165,-1.671,-31.860,-128.296,-52.795
0.214,-0.200,-1.708,-19.043,-149.475,-52.979
0.283,-0.237,-1.725,-5.737,-166.443,-51.819
0.357,-0.283,-1.725,11.841,-186.768,-48.828
0.392,-0.320,-1.700,27.344,-206.055,-47.729
0.413,-0.366,-1.652,46.387,-222.229,-46.631
0.459,-0.401,-1.593,62.866,-240.112,-44.495
0.516,-0.456,-1.487,82.947,-254.089,-41.077
0.597,-0.505,-1.350,96.802,-266.479,-34.119
0.666,-0.554,-1.260,109.070,-275.635,-25.574
0.733,-0.585,-1.183,117.249,-284.668,-11.536
0.773,-0.620,-1.118,121.521,-293.823,2.441
0.811,-0.627,-1.068,123.291,-307.617,21.667
0.872,-0.609,-1.034,123.474,-322.144,37.476
0.882,-0.577,-0.988,121.216,-342.102,55.847
0.925,-0.530,-0.928,118.835,-359.375,69.763
0.968,-0.492,-0.832,115.662,-380.310,85.205
0.968,-0.134,-0.359,62.500,-451.782,120.728
0.977,-0.013,-0.226,65.796,-468.750,122.437
1.006,0.074,-0.010,56.885,-486.572,119.690
1.053,0.167,0.192,48.279,-497.620,115.540
1.090,0.237,0.440,42.664,-505.615,110.718
1.117,0.310,0.647,35.889,-508.118,105.713
1.119,0.371,0.934,28.809,-507.202,100.769
1.065,0.473,1.178,19.287,-505.432,95.581
1.057,0.586,1.465,10.193,-502.930,85.266
1.018,0.695,1.853,-1.831,-498.291,73.425
0.994,0.773,2.220,-11.108,-489.441,55.115
0.985,0.752,2.685,-18.005,-468.567,36.499
0.994,0.740,3.045,-19.470,-423.950,14.343
1.009,0.681,3.369,-17.944,-389.404,-1.953
1.041,0.482,3.692,-8.545,-323.364,-15.747
1.001,0.537,3.545,-9.460,-272.644,-23.682
0.968,0.420,3.548,-0.244,-229.980,-23.987
0.916,0.327,3.450,8.118,-195.618,-19.348
0.907,0.337,3.286,10.620,-175.842,-13.916
0.878,0.305,3.174,11.047,-161.926,-8.606
0.827,0.245,3.150,11.230,-152.832,-2.441
0.780,0.247,3.156,6.775,-136.841,1.038
0.686,0.240,3.143,1.709,-115.234,3.174
0.599,0.200,3.035,-3.235,-88.379,4.639
0.515,0.162,2.906,-9.888,-68.359,6.409
0.429,0.145,2.717,-16.357,-49.500,7.568
0.322,0.132,2.543,-26.062,-38.452,6.470
0.279,0.110,2.360,-32.166,-29.053,3.479
0.174,-0.071,1.768,-14.099,14.893,0.732
0.177,-0.079,1.597,-0.977,23.254,2.930
0.168,-0.069,1.437,8.484,27.527,4.761
0.148,-0.038,1.288,17.212,27.405,6.287
0.121,-0.008,1.193,22.522,23.926,7.812
0.092,0.034,1.127,25.024,16.052,9.766
0.068,0.086,1.126,23.132,8.850,11.169
0.054,0.129,1.150,17.578,2.625,10.864
0.051,0.174,1.168,11.475,0.732,10.071
0.067,0.215,1.194,3.296,3.967,7.690
0.080,0.250,1.189,-6.653,9.338,4.456
0.076,0.270,1.153,-13.245,14.343,0.610
0.059,0.283,1.089,-20.020,15.564,-1.770
0.023,0.270,1.001,-24.231,13.672,-4.944
0.058,0.261,1.034,-28.015,17.456,-7.507
-0.003,0.243,0.953,-24.780,15.198,-17.334
0.009,0.152,0.978,-18.616,12.573,-15.747
0.128,0.208,0.958,-16.052,28.015,-8.667
0.107,0.158,0.881,-12.024,34.424,-10.742
0.094,0.167,0.833,-6.348,34.912,-17.395
0.089,0.128,0.795,-0.061,29.297,-21.790
0.118,0.149,0.805,1.465,28.625,-27.222
0.166,0.101,0.851,0.061,39.001,-30.334
0.176,0.025,0.832,1.343,47.852,-26.550
0.175,-0.005,0.774,2.563,50.354,-21.362
0.172,-0.023,0.730,2.319,47.119,-15.625
0.192,-0.019,0.701,-0.244,42.419,-9.949
0.215,-0.019,0.682,-5.127,41.138,-6.653
0.222,-0.029,0.657,-7.996,40.588,-2.625
0.213,-0.039,0.637,-11.780,40.283,1.465
0.190,-0.047,0.612,-16.052,39.856,7.080
0.171,-0.043,0.571,-20.081,39.612,11.780
0.151,-0.022,0.538,-22.461,38.818,16.418
0.134,0.016,0.495,-23.560,37.537,18.555
0.112,0.042,0.463,-23.071,36.499,19.592
0.090,0.063,0.432,-21.667,34.058,18.799
0.075,0.074,0.421,-19.653,32.593,16.846
0.063,0.067,0.411,-17.639,30.884,15.198
0.053,0.060,0.407,-15.198,30.579,13.672
0.050,0.055,0.393,-12.695,30.884,12.878
0.045,0.050,0.380,-10.620,31.616,11.414
0.038,0.058,0.357,-8.789,31.372,10.071
0.037,0.071,0.329,-6.226,31.128,8.850
0.034,0.085,0.311,-3.723,28.809,6.348
0.039,0.099,0.295,-2.136,26.917,3.784
0.048,0.104,0.290,-1.465,23.987,1.221
0.053,0.103,0.295,-0.854,21.545,-0.549
0.061,0.085,0.302,-0.488,19.226,-2.197
0.068,0.070,0.315,-0.366,17.700,-2.747
0.069,0.051,0.327,-0.916,17.395,-2.197
0.065,0.043,0.327,-1.221,17.395,-1.770
0.061,0.038,0.321,-2.197,17.517,-0.732
0.061,0.041,0.301,-3.601,17.273,0.183
0.060,0.041,0.286,-4.822,15.625,1.099
0.056,0.045,0.269,-5.676,12.939,2.136
0.062,0.055,0.256,-7.751,9.644,2.625
0.050,0.064,0.252,-9.644,4.700,2.930
0.040,0.075,0.256,-11.780,1.221,2.075
0.036,0.065,0.273,-12.756,-2.075,3.418
0.030,0.079,0.287,-13.733,-5.737,3.235
0.029,0.078,0.312,-13.550,-8.362,0.122
0.039,0.032,0.353,-13.184,-9.827,-2.258
0.052,0.049,0.369,-12.329,-7.690,-2.930
0.056,0.002,0.375,-10.620,-6.226,-2.075
0.061,0.014,0.372,-8.240,-5.432,-1.221
0.061,0.005,0.375,-4.822,-5.859,0.305
0.064,0.004,0.378,-2.441,-5.310,1.404
0.061,0.005,0.383,-0.305,-5.127,1.587
0.060,0.013,0.386,0.977,-4.272,1.770
0.064,0.021,0.389,2.747,-4.883,1.831
0.066,0.035,0.400,3.479,-5.371,1.526
0.069,0.051,0.414,3.113,-6.714,0.732
0.065,0.068,0.442,3.662,-6.348,0.488
0.064,0.071,0.470,3.113,-6.165,-0.244
0.065,0.071,0.498,2.197,-5.249,-0.366
0.062,0.072,0.517,1.465,-2.930,-0.427
0.064,0.078,0.530,-0.244,-1.221,-0.366
0.064,0.078,0.536,-1.831,0.549,-0.488
0.068,0.084,0.539,-3.967,2.075,-0.244
0.066,0.091,0.541,-6.042,3.357,0.671
0.070,0.103,0.544,-8.484,4.395,0.427
0.072,0.109,0.544,-10.559,5.493,0.244
0.080,0.111,0.550,-12.756,6.897,0.671
0.082,0.111,0.552,-14.465,7.629,0.488
0.078,0.114,0.542,-16.357,9.094,0.183
0.067,0.108,0.533,-18.188,10.315,-0.366
0.062,0.102,0.526,-19.653,11.292,-1.404
0.074,0.050,0.479,-23.315,11.536,-5.249
0.076,0.035,0.469,-22.949,11.292,-5.432
0.076,0.029,0.460,-22.095,10.925,-5.310
0.072,0.021,0.449,-22.400,10.620,-5.371
0.066,0.016,0.437,-22.583,9.705,-4.578
0.069,0.014,0.427,-22.278,8.179,-4.150
0.063,0.017,0.415,-22.766,6.348,-2.625
0.062,0.021,0.408,-23.315,3.174,-1.953
0.063,0.027,0.407,-23.987,0.977,-1.465
0.064,0.001,0.411,-24.048,-1.831,-0.854
0.064,0.038,0.417,-23.682,-4.089,-0.488
0.063,0.040,0.431,-23.499,-6.165,-0.610
0.065,0.042,0.439,-23.254,-7.385,-0.122
0.063,0.042,0.446,-22.095,-8.362,-0.549
0.069,0.038,0.455,-20.813,-8.972,-1.221
0.068,0.031,0.456,-18.799,-8.728,-1.709
0.073,0.017,0.459,-15.442,-8.972,-1.953
0.072,0.005,0.464,-12.207,-8.728,-2.014
0.073,-0.004,0.476,-8.362,-8.301,-1.831
0.072,-0.014,0.486,-5.371,-7.324,-1.648
0.072,-0.025,0.495,-1.831,-6.409,-1.404
0.074,-0.032,0.500,1.587,-4.761,-0.916
0.078,-0.037,0.503,3.479,-4.028,-0.244
0.081,-0.039,0.510,5.737,-2.197,0.488
0.084,-0.041,0.513,7.629,-1.160,1.526

0.430,-0.643,-1.481,145.691,-116.150,-142.334
0.463,-0.697,-1.418,155.151,-134.888,-134.827
0.509,-0.750,-1.354,160.217,-148.987,-124.207
0.543,-0.792,-1.277,161.377,-165.588,-113.892
0.581,-0.825,-1.205,158.936,-182.495,-100.769
0.606,-0.859,-1.111,151.978,-197.510,-89.539
0.641,-0.891,-0.984,143.372,-214.783,-76.660
0.675,-0.926,-0.877,128.235,-228.149,-65.979
0.719,-0.957,-0.724,110.901,-241.516,-52.673
0.759,-0.985,-0.596,85.144,-250.244,-41.016
0.793,-1.000,-0.448,61.035,-257.690,-26.917
0.839,-1.019,-0.350,32.166,-262.268,-14.954
0.817,-1.033,-0.241,9.277,-266.174,-2.380
0.810,-1.052,-0.164,-13.062,-268.188,6.775
0.811,-1.073,-0.076,-27.222,-268.433,15.259
0.782,-1.194,0.090,-35.156,-252.380,36.560
0.742,-1.221,0.113,-27.100,-249.939,39.978
0.721,-1.255,0.140,-13.733,-247.681,41.443
0.724,-1.318,0.166,0.549,-245.789,43.518
0.749,-1.384,0.213,18.311,-242.371,46.265
0.780,-1.472,0.254,40.344,-238.098,53.406
0.794,-1.533,0.294,56.580,-233.887,62.866
0.794,-1.575,0.319,70.923,-233.643,75.073
0.786,-1.589,0.360,76.538,-238.159,92.834
0.783,-1.579,0.415,77.515,-246.216,123.474
0.794,-1.559,0.526,75.256,-257.080,124.329
0.819,-1.521,0.628,70.618,-264.771,137.024
0.868,-1.515,0.750,65.979,-270.386,152.222
0.933,-1.485,0.856,61.279,-271.790,165.344
0.926,-1.429,0.990,57.617,-270.264,181.885
0.916,-1.325,1.062,50.171,-268.982,194.702
0.875,-1.232,1.177,42.847,-270.203,207.825
0.839,-1.125,1.259,36.377,-272.522,215.942
0.808,-1.049,1.375,34.302,-273.560,222.473
0.811,-0.947,1.529,36.133,-269.592,226.013
0.833,-0.892,1.661,40.222,-259.766,228.943
0.714,-0.465,1.970,37.659,-197.876,242.554
0.660,-0.336,2.024,30.823,-193.237,244.202
0.624,-0.232,2.087,25.146,-189.575,244.080
0.606,-0.107,2.177,20.813,-182.800,241.882
0.598,-0.054,2.252,18.860,-156.799,237.610
0.588,0.012,2.323,17.273,-154.419,233.887
0.551,0.085,2.355,16.174,-137.451,229.370
0.493,0.186,2.361,13.733,-118.591,225.403
0.423,0.224,2.353,11.414,-106.873,220.459
0.385,0.269,2.340,10.986,-97.351,215.271
0.369,0.309,2.356,12.573,-90.149,208.130
0.381,0.326,2.387,16.479,-79.041,201.965
0.393,0.334,2.409,22.644,-65.857,195.862
0.414,0.329,2.416,27.710,-45.837,190.308
0.427,0.325,2.406,31.799,-27.832,187.683
0.434,0.341,2.368,31.372,-6.958,185.791
0.427,0.366,2.294,26.794,7.080,185.303
0.416,0.392,2.224,20.874,16.296,184.814
0.400,0.403,2.144,12.146,22.278,184.326
0.396,0.412,2.088,5.554,23.804,183.655
0.492,0.463,2.106,-0.305,23.376,198.486
0.087,0.648,1.855,29.297,16.113,174.377
0.293,0.559,2.072,-4.333,33.752,163.025
0.437,0.436,2.001,-4.211,38.574,164.490
0.184,0.481,1.764,40.527,30.212,161.926
0.365,0.502,1.982,4.272,41.687,160.828
0.530,0.335,2.034,-6.958,72.510,178.223
0.564,0.303,1.998,-9.583,71.716,186.646
0.487,0.401,1.910,-9.827,73.547,197.937
0.373,0.523,1.853,-5.432,73.120,199.829
0.254,0.652,1.812,3.723,71.655,193.604
0.219,0.753,1.964,1.038,80.017,185.669
0.141,1.046,1.767,17.578,129.150,186.279
0.081,1.278,1.849,7.751,157.288,167.236
0.187,1.079,1.504,25.574,155.579,157.959
0.255,1.050,1.494,57.434,138.794,152.832
0.352,1.160,1.589,53.528,146.851,151.550
0.300,1.248,1.585,33.081,167.114,146.118
0.274,1.226,1.493,30.396,170.288,138.000
0.250,1.278,1.408,32.776,171.021,127.563
0.222,1.349,1.352,32.654,171.326,113.953
0.238,1.364,1.274,45.715,174.622,105.591
0.236,1.372,1.199,31.677,175.720,98.328
0.244,1.397,1.100,35.767,176.025,89.294
0.228,1.440,1.064,40.283,174.622,81.116
0.276,1.426,1.017,42.969,171.631,70.313
0.199,1.529,0.977,47.607,168.274,59.814
0.162,1.522,0.944,49.561,166.443,48.340
0.133,1.546,0.917,53.772,160.522,34.424
0.135,1.517,0.915,55.664,155.884,21.301
0.145,1.481,0.925,55.420,148.743,12.207
0.204,1.470,0.956,51.270,145.325,3.784
0.235,1.444,0.985,42.542,144.043,-5.859
0.250,1.418,0.997,28.564,143.494,-11.841
0.266,1.400,0.990,16.174,144.165,-15.747
0.222,1.390,0.947,1.465,141.602,-19.226
0.294,1.403,0.941,-9.521,140.808,-27.283
0.293,1.365,0.914,-18.555,140.747,-33.875
0.292,1.305,0.888,-21.423,139.221,-42.297
0.276,1.241,0.862,-19.470,135.437,-45.471
0.313,1.216,0.848,-14.771,134.766,-50.537
0.343,1.179,0.833,-9.399,135.742,-57.068
0.365,1.115,0.839,-3.601,140.259,-60.669
0.369,1.072,0.823,1.160,148.315,-59.631
0.366,1.043,0.802,6.104,152.832,-58.105
0.429,0.952,0.703,16.541,167.847,-71.716
0.446,0.915,0.679,16.602,171.021,-72.815
0.461,0.872,0.646,12.878,171.448,-72.510
0.468,0.849,0.615,6.958,170.227,-71.838
0.472,0.829,0.571,-1.099,166.626,-72.021
0.478,0.805,0.545,-9.644,161.011,-73.181
0.481,0.785,0.516,-19.287,154.541,-75.195
0.719,0.648,0.505,-26.489,148.865,-76.416
0.468,0.748,0.519,-35.339,141.541,-78.369
0.524,0.654,0.502,-41.870,140.564,-81.543
0.552,0.611,0.509,-46.631,139.404,-84.106
0.528,0.535,0.491,-48.706,139.465,-84.778
0.533,0.499,0.503,-47.974,140.381,-86.304
0.539,0.430,0.499,-46.448,145.386,-89.722
0.527,0.356,0.475,-43.457,152.405,-90.576
0.489,0.275,0.447,-36.499,157.593,-87.891
0.471,0.227,0.409,-29.724,161.621,-84.717
0.463,0.194,0.377,-22.522,165.771,-81.299
0.462,0.189,0.339,-18.250,169.312,-79.285
0.465,0.172,0.304,-15.137,173.035,-79.468
0.449,0.150,0.273,-13.977,177.307,-80.017
0.423,0.127,0.225,-12.512,180.359,-79.590
0.388,0.123,0.182,-12.268,183.044,-78.674
0.362,0.128,0.135,-14.221,185.181,-77.759
0.350,0.138,0.090,-16.846,188.904,-77.515
0.289,0.163,-0.176,-13.062,190.369,-86.609
0.276,0.155,-0.229,-8.118,186.340,-88.379
0.262,0.154,-0.272,-3.784,179.138,-91.553
0.254,0.143,-0.313,-1.221,172.424,-94.727
0.253,0.123,-0.350,1.587,162.659,-97.412
0.256,0.111,-0.395,4.272,154.541,-98.816
0.257,0.102,-0.433,5.432,144.897,-99.487
0.252,0.098,-0.469,5.859,130.798,-100.037
0.250,0.080,-0.489,5.859,118.042,-99.670
0.250,0.065,-0.499,4.150,101.013,-99.365
0.246,0.036,-0.486,1.160,87.646,-98.083
0.244,-0.028,-0.456,-1.038,73.181,-97.168
0.237,-0.027,-0.425,-2.197,48.157,-95.276
0.231,-0.043,-0.386,-3.601,53.528,-94.238
0.226,-0.062,-0.349,-4.700,48.889,-94.055
0.221,-0.078,-0.315,-5.554,44.861,-93.262
0.222,-0.105,-0.289,-6.104,43.823,-92.896
0.221,-0.130,-0.264,-6.653,42.908,-92.773
0.221,-0.173,-0.251,-8.118,43.640,-91.187
0.217,-0.246,-0.237,-7.690,44.312,-89.539
0.206,-0.266,-0.230,-6.042,47.913,-86.731
0.199,-0.297,-0.230,-2.991,54.321,-83.801
0.189,-0.309,-0.278,-0.122,64.087,-80.566
0.187,-0.307,-0.299,3.296,73.608,-77.454
0.183,-0.292,-0.396,4.578,82.825,-73.853
0.182,-0.261,-0.455,6.042,88.318,-71.899
0.175,-0.239,-0.536,6.348,89.844,-70.984
0.146,-0.240,-0.800,6.714,68.237,-72.083
0.141,-0.257,-0.854,11.353,63.477,-72.266
0.129,-0.270,-0.930,15.869,56.824,-72.510
0.118,-0.292,-0.955,21.179,50.720,-72.449
0.112,-0.312,-1.026,24.109,39.612,-71.167
0.116,-0.340,-1.025,26.367,28.931,-68.542
0.130,-0.369,-1.062,27.649,13.245,-63.660
0.149,-0.396,-1.031,28.931,2.563,-58.411
0.169,-0.417,-1.024,29.419,-9.521,-52.002
0.175,-0.426,-1.017,30.090,-16.907,-46.143
0.178,-0.436,-1.020,30.334,-25.513,-39.917
0.176,-0.436,-1.029,29.480,-32.104,-34.180
0.177,-0.432,-1.048,27.039,-41.504,-27.588
0.182,-0.431,-1.066,24.292,-49.744,-23.315
0.189,-0.433,-1.078,22.156,-59.753,-18.494
0.199,-0.445,-1.088,19.531,-66.528,-14.771
0.211,-0.454,-1.108,18.250,-72.632,-11.353
0.225,-0.457,-1.133,18.250,-78.064,-6.226
0.236,-0.453,-1.182,18.372,-83.191,-2.319
0.250,-0.444,-1.227,18.860,-89.172,2.502
0.259,-0.435,-1.289,20.264,-98.755,5.737
0.276,-0.439,-1.328,22.766,-108.337,9.338
0.294,-0.450,-1.354,27.161,-120.972,12.207
0.327,-0.453,-1.363,29.053,-130.737,17.456
0.499,-0.394,-1.459,22.583,-182.678,43.030
0.542,-0.371,-1.477,16.968,-203.979,49.316
0.591,-0.342,-1.482,12.573,-224.854,55.542
0.641,-0.327,-1.470,8.850,-250.916,59.448
0.713,-0.312,-1.445,9.338,-273.071,65.002
0.777,-0.286,-1.391,11.475,-300.049,68.848
0.845,-0.243,-1.323,14.648,-322.144,72.510
0.897,-0.211,-1.210,20.569,-347.412,75.134
0.940,-0.179,-1.091,27.344,-367.676,76.843
0.963,-0.170,-0.926,34.546,-389.099,76.294
0.994,-0.180,-0.775,41.199,-403.320,76.904
1.025,-0.201,-0.589,48.157,-417.603,78.125
1.055,-0.226,-0.438,51.819,-425.842,82.581
1.053,-0.215,-0.261,52.063,-435.242,87.891
1.044,-0.165,-0.112,50.049,-442.078,93.445
1.040,-0.110,0.086,48.279,-451.843,97.534
1.039,-0.051,0.264,46.265,-459.412,101.807
1.045,0.008,0.500,46.265,-466.187,104.065
-0.938,0.101,0.002,192.383,-458.374,126.587
1.056,-1.387,2.043,299.622,-448.486,165.344
1.136,0.627,2.087,56.519,-466.248,50.842
1.052,0.936,2.621,52.673,-445.129,114.746
1.034,1.072,2.966,34.729,-400.940,99.243
0.996,1.125,3.151,-16.479,-366.455,18.066
0.908,1.092,3.307,1.709,-320.557,35.583
0.828,1.053,3.437,-16.174,-294.556,6.714
0.812,0.971,3.642,-50.903,-255.615,-21.729
0.632,0.851,3.679,-57.556,-227.966,15.564
0.575,0.745,3.651,-52.795,-203.369,7.629
0.491,0.620,3.529,-53.711,-190.308,-7.141
0.479,0.543,3.431,-49.438,-179.260,-7.690
0.495,0.450,3.378,-44.739,-166.321,4.761
0.490,0.365,3.325,-44.373,-141.113,-26.367
0.470,0.249,3.296,-38.208,-115.417,-22.583
0.398,0.186,3.171,-30.396,-81.116,8.789
0.358,0.152,3.056,-24.414,-55.481,4.333
0.299,0.151,2.926,-20.325,-16.541,14.832
0.263,0.181,2.780,-15.625,-9.583,27.405
0.214,0.203,2.659,-14.160,4.089,8.850
0.158,0.219,2.533,-12.512,14.771,10.437
0.104,0.217,2.421,-10.498,19.653,23.804
0.049,0.223,2.294,-8.728,25.024,17.029
0.032,0.237,2.207,-8.667,32.410,21.301
0.002,0.261,2.034,-9.277,41.321,21.423
0.000,0.218,1.942,-11.841,53.284,2.563
0.048,0.275,1.690,-13.306,62.622,6.653
-0.110,0.293,1.490,-14.160,68.787,-1.892
0.030,0.147,1.550,-24.353,100.647,0.610
0.042,0.186,1.221,-29.541,121.155,0.610
-0.088,0.173,0.872,-21.545,105.408,12.878
-0.128,0.192,0.599,-21.057,68.604,14.099
-0.043,0.208,0.509,-27.527,44.556,7.812
0.099,0.191,0.516,-34.607,41.504,6.775
0.156,0.124,0.449,-38.574,57.922,-7.263
0.103,0.050,0.291,-33.630,73.303,-18.188
-0.068,-0.160,-0.012,-4.517,12.451,-6.104
-0.022,-0.184,0.034,-3.357,-4.578,-0.916
0.014,-0.168,0.127,-2.319,-20.447,3.540
0.039,-0.116,0.221,-0.061,-29.419,13.977
0.036,-0.051,0.337,1.526,-35.400,16.357
0.026,0.024,0.426,2.563,-37.964,15.686
0.020,0.069,0.524,3.052,-38.208,17.639
0.027,0.114,0.602,5.188,-35.767,15.747
0.042,0.143,0.690,8.179,-30.029,14.221
0.061,0.179,0.744,12.451,-23.499,16.296
0.074,0.203,0.787,15.991,-15.991,14.709
0.075,0.237,0.814,18.311,-9.888,12.756
0.076,0.259,0.830,18.799,-3.540,12.329
0.071,0.284,0.844,18.860,0.366,12.024
0.063,0.303,0.847,17.883,4.028,8.301
0.055,0.315,0.854,14.648,8.240,7.507
0.052,0.332,0.852,10.254,11.414,7.812
0.049,0.343,0.837,5.310,14.221,5.432
0.050,0.346,0.817,-1.892,16.235,2.319
0.050,0.344,0.794,-7.812,17.029,2.380
0.052,0.335,0.759,-14.832,17.944,-14.343
0.053,0.326,0.731,-19.775,16.541,-1.831
0.052,0.314,0.697,-24.292,15.747,-2.563
0.051,0.299,0.685,-28.442,12.817,-5.188
0.051,0.275,0.674,-32.288,10.559,-7.874
0.048,0.254,0.672,-34.424,8.789,-9.338
0.049,0.231,0.681,-37.964,7.385,-12.512
0.053,0.207,0.683,-40.222,9.521,-15.320
0.056,0.193,0.675,-44.861,11.841,-16.296
0.060,0.174,0.655,-49.377,14.404,-17.761
0.061,0.126,0.622,-54.932,15.991,-18.921
0.066,0.136,0.582,-60.120,16.357,-18.433
0.065,0.124,0.540,-64.148,15.198,-19.348
0.071,0.092,0.513,-66.223,14.221,-19.836
0.079,0.068,0.484,-67.627,12.085,-20.081
0.074,0.042,0.451,-68.542,10.681,-20.386
0.082,0.011,0.435,-67.688,8.850,-20.630
0.085,-0.032,0.414,-63.904,9.949,-18.250
0.082,-0.050,0.379,-60.181,8.545,-14.404
0.073,-0.059,0.359,-54.932,8.362,-14.038
0.052,-0.096,0.329,-50.659,6.348,-13.000
0.081,-0.107,0.359,-43.579,7.446,-16.052
0.045,-0.114,0.297,-39.124,8.179,-16.907
0.079,-0.165,0.335,-27.771,7.507,-17.334
0.092,-0.181,0.327,-21.484,12.573,-5.798
0.105,-0.137,0.298,-14.709,14.038,1.953
0.089,-0.007,0.329,-1.831,-4.822,-2.258
0.083,0.018,0.386,-1.953,-7.202,-1.038
0.089,0.045,0.430,-3.296,-8.057,15.259
0.093,0.059,0.483,-4.761,-6.226,-0.610
0.096,0.070,0.512,-6.287,-3.967,-1.831
0.095,0.073,0.534,-6.653,-0.610,-4.517
0.101,0.070,0.545,-8.606,3.296,-5.371
0.091,0.063,0.539,-10.925,5.798,-5.493
0.071,0.075,0.510,-13.977,8.850,-4.089
0.079,0.087,0.485,-17.273,6.897,-6.042
0.078,0.061,0.487,-20.203,5.493,-6.287
0.072,0.060,0.476,-21.973,3.723,-4.883
0.070,0.058,0.471,-23.621,1.770,-5.310
0.066,0.054,0.474,-23.193,1.709,-5.493
0.072,0.043,0.480,-23.499,1.587,-5.554
0.069,0.033,0.486,-23.743,2.625,-5.676
0.071,0.023,0.483,-23.010,3.174,-5.432
0.075,0.014,0.490,-23.315,3.784,-5.127
0.077,0.005,0.492,-23.743,4.639,-4.395
0.072,0.004,0.491,-24.170,4.761,-2.869
0.069,0.008,0.484,-25.635,3.723,-1.831
0.069,0.011,0.482,-27.527,2.441,-0.793

0.669,-1.442,0.532,0.732,-258.911,74.219
0.690,-1.437,0.649,6.470,-259.277,82.031
0.705,-1.390,0.760,9.216,-262.024,92.590
0.710,-1.347,0.907,9.216,-265.991,101.563
0.720,-1.305,1.047,8.911,-269.043,111.633
0.736,-1.276,1.229,6.958,-269.958,118.896
0.748,-1.232,1.386,2.869,-266.235,125.793
0.750,-1.182,1.542,-2.991,-259.399,135.803
0.740,-1.095,1.651,-12.939,-254.333,144.592
0.721,-1.027,1.779,-20.752,-251.404,155.884
0.687,-0.949,1.893,-27.466,-249.634,165.222
0.646,-0.885,2.057,-30.579,-246.277,175.354
0.615,-0.806,2.202,-28.503,-238.281,181.091
0.595,-0.737,2.365,-23.499,-221.741,184.814
0.590,-0.655,2.472,-14.893,-201.111,186.829
0.585,-0.579,2.557,-7.446,-174.805,187.622
0.534,-0.478,2.581,-0.305,-151.672,187.622
0.515,-0.390,2.555,3.723,-128.967,187.195
0.467,-0.299,2.514,7.019,-113.770,185.547
0.425,-0.240,2.443,9.460,-100.037,183.167
0.414,-0.189,2.433,14.954,-88.379,180.725
0.383,-0.040,2.285,31.555,-24.963,174.561
0.346,0.034,2.229,28.992,-11.841,174.377
0.310,0.104,2.173,25.513,-4.578,174.500
0.269,0.146,2.142,22.400,1.160,173.950
0.253,0.194,2.121,20.996,6.348,173.096
0.247,0.235,2.117,21.301,13.245,171.814
0.238,0.306,2.128,18.677,25.574,170.532
0.218,0.342,2.135,11.414,36.560,169.250
0.187,0.404,2.094,-1.953,50.293,166.748
0.144,0.448,2.029,-20.020,57.739,164.001
0.087,0.460,1.926,-32.654,63.049,159.973
0.062,0.460,1.846,-42.480,64.270,157.043
0.047,0.468,1.780,-45.837,65.186,152.832
0.045,0.474,1.719,-46.082,66.528,148.010
0.046,0.476,1.683,-44.312,69.275,142.639
0.116,0.695,1.681,-39.307,65.002,140.991
-0.026,0.395,1.712,-38.391,73.242,129.028
-0.043,0.403,1.610,-26.978,79.346,130.066
0.030,0.447,1.594,-21.606,85.388,130.127
0.024,0.451,1.569,-15.808,91.919,127.441
0.057,0.450,1.388,-23.071,78.552,128.113
-0.046,0.564,1.414,-18.799,73.120,121.826
-0.011,0.459,1.512,-23.376,81.177,121.216
0.004,0.325,1.362,-8.423,91.064,124.939
0.060,0.546,1.696,-7.751,105.042,109.619
0.115,0.476,1.727,-8.484,130.249,117.798
0.170,0.400,1.601,-2.319,147.095,114.990
0.110,0.430,1.363,0.671,146.729,118.225
0.103,0.486,1.267,-1.831,136.963,127.502
0.122,0.559,1.257,-6.287,129.761,133.423
0.147,0.580,1.298,-9.460,127.197,133.118
0.171,0.603,1.316,-12.024,131.714,129.761
0.062,0.782,1.108,-26.672,119.141,112.183
0.061,0.842,1.011,-28.442,115.112,104.553
0.060,0.659,1.391,2.319,133.545,103.271
-0.013,0.722,1.211,8.240,144.409,107.056
0.050,0.807,1.193,23.010,149.475,98.083
0.006,0.771,1.068,34.668,145.752,90.576
-0.027,0.817,1.058,44.495,139.282,92.224
-0.015,0.903,1.094,46.814,142.151,97.229
-0.020,0.976,1.095,41.687,150.269,100.281
-0.066,1.044,1.066,37.598,153.992,98.450
-0.105,1.087,0.988,34.912,149.231,93.445
-0.131,1.131,0.910,35.950,141.846,88.684
-0.131,1.167,0.825,39.673,127.747,86.121
-0.156,1.216,0.784,42.725,115.479,85.999
-0.114,1.269,0.777,41.992,102.234,86.121
-0.113,1.363,0.817,37.964,93.994,86.182
-0.123,1.475,0.906,32.410,88.806,81.909
-0.143,1.612,0.943,21.606,86.426,74.646
-0.167,1.702,0.985,11.230,84.106,61.462
-0.179,1.763,1.013,-2.319,80.627,46.814
-0.164,1.780,1.022,-12.085,62.683,28.870
-0.125,1.760,1.029,-21.606,75.684,14.099
-0.065,1.699,1.034,-28.198,74.768,-1.770
-0.013,1.594,1.026,-35.278,75.317,-12.451
0.028,1.526,1.010,-39.978,76.599,-20.691
0.055,1.415,0.996,-43.396,78.491,-25.391
0.076,1.366,0.992,-43.091,78.918,-30.334
0.090,1.299,1.008,-42.297,81.970,-33.630
0.109,1.205,1.024,-38.574,85.388,-38.330
0.124,1.123,1.045,-16.479,92.285,-42.542
0.161,1.034,1.054,-22.766,98.755,-46.692
0.191,0.979,1.056,-0.366,109.985,-49.561
0.285,0.848,0.880,5.432,133.301,-51.575
0.307,0.817,0.848,10.315,133.240,-52.979
0.333,0.786,0.825,14.526,133.362,-54.443
0.358,0.737,0.807,18.738,134.155,-55.359
0.385,0.689,0.754,22.217,137.085,-55.237
0.437,0.632,0.750,25.818,139.404,-53.955
0.423,0.592,0.711,30.273,142.761,-50.964
0.427,0.541,0.646,33.447,144.897,-48.340
0.426,0.498,0.591,35.522,145.874,-43.518
0.422,0.457,0.521,39.429,146.667,-38.757
0.412,0.432,0.476,42.908,145.935,-32.776
0.401,0.433,0.419,44.128,147.339,-27.893
0.394,0.449,0.368,42.175,147.400,-21.729
0.384,0.473,0.295,36.865,148.437,-18.372
0.372,0.497,0.225,27.527,147.644,-16.418
0.358,0.517,0.133,18.127,143.066,-16.907
0.339,0.538,0.056,7.629,137.390,-18.616
0.321,0.549,-0.009,0.061,127.930,-23.010
0.314,0.547,-0.056,-7.935,120.789,-27.344
0.307,0.534,-0.121,-14.526,111.206,-34.241
0.309,0.508,-0.119,-18.799,103.760,-40.283
0.319,0.486,-0.125,-22.217,95.581,-47.424
0.219,0.504,-0.122,-26.917,87.830,-52.673
0.338,0.482,-0.088,-30.151,81.299,-60.608
0.347,0.507,-0.038,-34.119,78.918,-71.899
0.309,0.490,-0.010,-35.034,79.346,-87.036
0.289,0.446,0.011,-35.950,82.031,-99.854
0.263,0.395,-0.008,-32.410,82.642,-115.234
0.385,0.038,-0.106,14.160,96.802,-153.870
0.385,-0.053,-0.188,32.471,96.313,-156.982
0.381,-0.126,-0.231,46.631,89.905,-159.302
0.367,-0.207,-0.258,60.303,82.947,-158.752
0.355,-0.278,-0.259,67.993,76.050,-156.738
0.346,-0.374,-0.235,77.209,72.998,-154.114
0.339,-0.453,-0.197,84.778,74.829,-149.902
0.332,-0.522,-0.165,91.675,79.773,-144.287
0.329,-0.549,-0.158,93.201,87.402,-134.888
0.321,-0.564,-0.180,88.806,92.529,-125.793
0.317,-0.563,-0.221,79.224,95.886,-112.976
0.316,-0.558,-0.292,66.589,94.604,-101.746
0.309,-0.550,-0.353,55.664,89.600,-89.050
0.297,-0.529,-0.424,42.358,82.214,-79.224
0.274,-0.509,-0.498,32.837,69.946,-69.580
0.256,-0.486,-0.499,21.301,60.303,-62.561
0.231,-0.471,-0.511,13.306,48.950,-54.871
0.219,-0.453,-0.528,6.897,40.833,-50.110
0.203,-0.438,-0.541,3.662,33.386,-45.410
0.189,-0.411,-0.568,3.906,27.588,-41.992
0.167,-0.393,-0.587,5.737,20.081,-39.246
0.155,-0.383,-0.600,7.935,13.550,-37.659
0.139,-0.383,-0.593,9.644,6.836,-36.011
0.131,-0.382,-0.568,12.451,0.916,-35.217
0.120,-0.370,-0.515,3.235,-7.690,-32.288
0.121,-0.376,-0.556,-2.869,-9.583,-30.090
0.119,-0.390,-0.550,-10.254,-12.512,-28.564
0.115,-0.400,-0.568,-16.541,-15.381,-25.940
0.111,-0.408,-0.598,-23.804,-17.578,-23.987
0.106,-0.406,-0.630,-28.931,-19.470,-21.851
0.101,-0.400,-0.665,-36.072,-21.301,-19.653
0.097,-0.389,-0.709,-41.138,-23.926,-18.127
0.094,-0.372,-0.752,-46.631,-27.039,-16.479
0.096,-0.364,-0.801,-51.758,-32.043,-15.442
0.101,-0.352,-0.837,-55.786,-37.292,-14.526
0.112,-0.350,-0.872,-58.533,-43.884,-13.062
0.128,-0.354,-0.894,-60.120,-50.171,-12.024
0.141,-0.358,-0.919,-59.570,-55.725,-10.864
0.156,-0.361,-0.941,-57.068,-61.523,-9.155
0.174,-0.357,-0.965,-52.612,-66.345,-7.812
0.195,-0.349,-0.988,-46.143,-73.120,-5.188
0.209,-0.338,-1.019,-38.818,-80.139,-2.747
0.241,-0.332,-1.043,-16.418,-90.149,0.671
0.316,-0.253,-1.112,7.080,-129.150,7.263
0.330,-0.229,-1.124,13.428,-140.259,5.981
0.345,-0.215,-1.119,17.334,-155.579,5.310
0.376,-0.203,-1.100,16.357,-169.800,3.967
0.411,-0.203,-1.063,9.155,-188.843,2.380
0.459,-0.215,-1.021,0.061,-204.041,2.319
0.501,-0.234,-0.963,-11.719,-222.412,3.296
0.548,-0.257,-0.924,-21.790,-235.291,6.226
0.579,-0.270,-0.886,-32.715,-251.587,9.827
0.611,-0.284,-0.864,-39.246,-263.306,14.465
0.636,-0.303,-0.838,-42.908,-278.687,18.311
0.669,-0.335,-0.812,-40.771,-290.405,22.827
0.696,-0.341,-0.759,-34.424,-303.711,27.649
0.722,-0.317,-0.701,-25.513,-314.392,32.410
0.738,-0.280,-0.612,-11.414,-324.463,36.682
0.745,-0.246,-0.530,1.465,-333.374,41.260
0.740,-0.225,-0.415,17.273,-341.614,44.617
0.739,-0.200,-0.308,29.602,-348.572,48.645
0.736,-0.172,-0.174,43.518,-354.492,50.903
0.731,-0.142,-0.059,51.697,-374.146,52.856
0.727,-0.103,0.086,58.228,-363.037,54.199
0.750,0.156,0.738,42.908,-383.667,61.523
0.771,0.164,0.914,32.959,-389.709,63.477
0.788,0.176,1.131,24.109,-394.409,65.674
0.825,0.250,1.343,16.357,-395.203,68.115
0.856,0.329,1.602,8.423,-388.489,66.772
0.818,0.438,1.802,1.160,-380.371,63.293
0.789,0.555,2.040,-3.235,-365.540,57.800
0.769,0.672,2.228,-6.165,-349.548,50.415
0.760,0.735,2.434,-3.235,-329.163,39.917
0.749,0.781,2.605,5.432,-315.247,28.992
0.742,0.811,2.868,15.564,-296.814,14.404
0.727,0.798,3.070,23.010,-274.841,2.502
0.688,0.765,3.250,28.809,-246.765,-5.859
0.653,0.731,3.375,31.250,-207.703,-9.949
0.602,0.687,3.398,28.198,-157.349,-13.428
0.557,0.651,3.334,22.461,-135.742,-15.076
0.497,0.604,3.233,15.198,-94.299,-15.808
0.450,0.555,3.089,5.554,-85.571,-15.076
0.426,0.496,2.963,-1.648,-70.007,-14.282
0.411,0.423,2.818,-8.118,-54.688,-12.146
0.389,0.348,2.706,-11.597,-40.894,-6.897
0.361,0.306,2.566,-14.526,-25.085,-1.709
0.307,0.276,2.429,-18.066,-11.597,4.700
0.256,0.271,2.252,-22.583,1.221,9.155
0.182,0.274,2.108,-26.367,8.850,11.841
0.124,0.262,1.921,-29.602,13.672,12.451
0.084,0.244,1.798,-32.959,14.160,11.963
0.037,0.206,1.659,-35.950,16.418,10.864
-0.006,0.180,1.553,-36.438,16.052,10.376
0.036,0.160,1.471,-35.828,18.677,10.315
0.032,0.146,1.399,-36.865,23.560,11.230
0.003,0.133,1.279,-34.058,23.499,9.460
0.011,0.124,1.201,-29.053,18.250,7.874
0.041,0.118,1.169,-28.870,21.240,10.681
0.023,0.129,1.070,-30.029,25.574,16.052
-0.122,0.147,0.940,-31.006,19.531,17.212
-0.064,0.193,0.929,-31.006,5.798,10.376
-0.186,-0.057,0.681,-20.996,-18.250,-40.710
-0.159,-0.026,0.832,-27.954,-35.950,-7.507
0.297,0.109,1.139,-34.119,-2.502,9.644
0.385,0.094,1.052,-36.682,61.890,11.292
0.257,0.087,0.863,-22.705,74.036,7.141
0.103,0.150,0.663,-10.437,67.749,-3.418
0.035,0.194,0.541,0.549,39.246,-14.099
0.044,0.174,0.545,2.502,17.944,-20.935
0.098,0.122,0.602,-0.305,6.470,-22.278
0.160,0.084,0.653,-5.554,6.775,-21.973
0.161,0.063,0.667,-7.874,10.437,-21.973
0.152,0.045,0.678,-8.362,12.329,-21.912
0.144,0.023,0.685,-7.629,14.587,-21.545
0.137,-0.006,0.681,-7.996,15.808,-19.592
0.134,-0.017,0.667,-7.935,15.747,-15.625
0.139,-0.031,0.651,-9.155,16.602,-12.573
0.146,-0.042,0.642,-9.155,16.418,-8.057
0.142,-0.055,0.636,-6.958,15.503,-3.601
0.145,-0.049,0.646,-6.104,13.977,1.404
0.146,-0.033,0.663,-3.906,13.550,5.920
0.144,-0.016,0.671,-2.563,15.076,11.414
0.143,0.008,0.672,-3.357,17.578,15.137
0.135,0.029,0.667,-5.676,20.508,18.860
0.126,0.049,0.640,-6.531,22.583,21.973
0.138,0.073,0.610,-8.789,22.949,24.353
0.086,0.115,0.563,-10.742,21.179,25.208
0.127,0.159,0.566,-11.719,20.752,25.146
0.082,0.177,0.515,-14.282,17.700,23.865
0.122,0.199,0.528,-15.808,13.428,20.813
0.098,0.207,0.526,-18.372,11.353,17.944
0.097,0.204,0.517,-19.958,10.010,14.343
0.091,0.188,0.513,-20.752,7.751,9.216
0.098,0.159,0.514,-21.912,6.836,6.897
0.100,0.135,0.514,-22.888,7.751,6.592
0.102,0.114,0.507,-22.888,8.911,5.737
0.108,0.085,0.491,-22.278,11.597,4.211
0.103,0.056,0.467,-19.714,12.817,2.686
0.098,0.023,0.451,-17.029,14.099,1.465
0.094,0.004,0.427,-14.648,14.709,1.770
0.095,-0.015,0.403,-11.963,14.709,2.502
0.096,-0.025,0.389,-10.681,15.381,3.479
0.124,-0.035,0.372,-9.216,15.259,4.700
0.093,-0.033,0.359,-8.545,13.733,5.920
0.064,-0.034,0.353,-7.751,11.597,6.653
0.090,-0.034,0.353,-7.507,8.911,7.874
0.102,-0.029,0.360,-7.935,6.714,8.728
0.082,-0.014,0.361,-8.606,3.967,9.827
0.082,0.001,0.372,-10.193,3.357,10.681
0.064,0.012,0.370,-10.742,0.671,10.132
0.064,0.015,0.383,-11.230,-0.916,10.010
0.057,0.024,0.393,-11.719,-0.122,11.108
0.063,0.039,0.383,-11.597,0.488,11.108
0.057,0.055,0.383,-9.949,-0.061,10.010
0.068,0.060,0.387,-8.728,-0.122,8.423
0.061,0.066,0.398,-6.226,-0.183,7.019
0.064,0.069,0.402,-4.700,-0.916,3.723
0.060,0.063,0.410,-3.540,-1.831,1.099
0.062,0.050,0.417,-3.906,-2.197,-0.427
0.070,0.040,0.432,-3.479,-2.441,-0.671
0.085,0.033,0.442,-4.211,-2.380,-0.610
0.124,0.029,0.455,-5.249,-2.258,0.000
0.099,0.029,0.461,-5.798,-1.831,0.122
0.103,0.028,0.467,-7.019,-1.892,0.061
0.102,0.029,0.474,-7.996,-1.770,1.465
0.108,0.028,0.480,-9.460,-1.953,1.587
0.103,0.033,0.483,-10.559,-1.465,1.709
0.112,0.056,0.516,-15.625,0.916,2.686
0.114,0.057,0.522,-17.517,1.587,2.747
0.100,0.059,0.521,-18.127,2.991,2.441
0.091,0.062,0.513,-18.616,3.662,2.197
0.081,0.064,0.508,-18.860,5.310,1.404
0.080,0.069,0.503,-17.456,5.798,0.305
0.072,0.067,0.498,-17.334,7.385,-0.488
0.074,0.067,0.493,-17.273,7.812,-1.587
0.071,0.069,0.484,-16.357,8.667,-3.235
0.080,0.062,0.485,-15.015,8.179,-4.700
0.082,0.055,0.488,-13.855,9.216,-5.676
0.097,0.049,0.488,-12.695,9.155,-7.141
0.088,0.046,0.487,-11.414,9.644,-7.507
0.098,0.041,0.489,-10.559,9.705,-7.996
0.096,0.039,0.487,-9.644,8.667,-8.240
0.098,0.037,0.495,-8.240,8.301,-8.362
0.101,0.004,0.495,-7.935,7.324,-8.423
0.101,0.029,0.500,-8.667,7.446,-8.179
0.111,0.032,0.506,-9.644,6.226,-7.507
0.110,0.026,0.501,-9.521,5.310,-6.409

0.325,-0.512,-1.761,-0.183,-85.327,-99.792
0.356,-0.551,-1.746,10.010,-105.652,-90.210
0.377,-0.558,-1.712,22.156,-121.338,-79.956
0.394,-0.567,-1.644,40.161,-138.306,-73.242
0.422,-0.589,-1.570,57.800,-149.780,-67.078
0.458,-0.612,-1.441,78.491,-160.828,-62.683
0.493,-0.632,-1.365,91.614,-168.701,-57.495
0.557,-0.654,-1.295,112.976,-176.086,-53.528
0.568,-0.663,-1.173,134.094,-184.753,-48.767
0.624,-0.659,-1.091,159.912,-190.918,-44.495
0.612,-0.651,-0.999,176.636,-195.740,-40.161
0.620,-0.663,-0.896,188.477,-199.341,-36.987
0.627,-0.695,-0.796,193.665,-204.651,-32.410
0.625,-0.745,-0.711,193.176,-210.876,-27.466
0.631,-0.752,-0.591,185.059,-221.130,-20.264
0.636,-0.755,-0.486,159.668,-231.750,-13.794
0.703,-1.010,-0.091,31.067,-284.485,15.930
0.725,-1.042,0.025,11.108,-297.974,22.644
0.746,-1.081,0.139,-1.343,-309.387,31.555
0.763,-1.117,0.300,-10.803,-320.862,37.598
0.794,-1.178,0.448,-12.756,-325.439,44.617
0.829,-1.220,0.645,-8.545,-326.111,50.964
0.874,-1.234,0.819,-1.343,-320.435,59.326
0.898,-1.205,1.018,8.179,-308.838,66.650
0.894,-1.148,1.157,15.259,-298.462,75.073
0.868,-1.104,1.308,22.278,-287.109,80.750
0.829,-1.071,1.433,31.677,-279.419,85.144
0.809,-1.058,1.584,40.466,-269.348,88.135
0.805,-1.055,1.718,52.612,-258.301,92.163
0.814,-1.060,1.875,63.904,-242.126,97.290
0.813,-1.039,1.989,74.707,-224.304,105.530
0.778,-0.981,2.093,93.689,-204.834,118.469
0.734,-0.873,2.157,77.759,-190.613,129.150
0.676,-0.762,2.241,73.547,-178.528,141.052
0.635,-0.630,2.271,64.697,-169.495,148.865
0.592,-0.534,2.329,56.946,-161.621,154.419
0.566,-0.437,2.391,48.584,-152.161,157.349
0.547,-0.371,2.438,44.128,-138.245,159.485
0.406,-0.133,2.437,27.527,-82.458,166.016
0.361,-0.069,2.408,24.963,-73.303,165.222
0.328,-0.036,2.385,22.522,-63.293,163.086
0.317,-0.017,2.353,21.057,-52.795,160.583
0.318,-0.014,2.323,20.569,-42.175,157.654
0.318,-0.008,2.274,20.447,-27.344,156.006
0.305,0.018,2.223,19.775,-1.526,154.297
0.289,0.089,2.159,17.273,-5.981,153.931
0.262,0.108,2.101,15.808,1.282,154.358
0.240,0.150,2.037,14.893,7.629,153.137
0.219,0.180,1.995,15.686,12.268,150.391
0.203,0.184,1.964,18.677,18.250,145.813
0.199,0.176,1.945,24.597,24.963,141.479
0.194,0.152,1.931,31.799,37.170,139.465
0.183,0.144,1.893,41.687,47.791,140.015
0.160,0.154,1.853,47.119,58.044,141.663
0.142,0.168,1.809,50.110,66.650,143.494
0.133,0.193,1.780,50.476,71.716,145.508
0.135,0.219,1.754,49.866,75.745,147.705
-1.267,2.254,-1.363,108.459,76.843,85.266
-0.717,-0.678,1.866,3.174,71.289,152.466
0.187,0.490,1.991,27.222,146.484,129.578
0.099,0.358,1.897,68.726,121.094,151.672
0.154,0.511,1.694,46.936,148.010,169.617
0.173,0.485,1.646,-9.888,124.634,161.987
0.115,0.656,1.625,-8.789,133.118,148.987
0.141,0.712,1.563,12.390,116.760,169.128
-0.046,1.200,1.234,-13.000,117.371,147.827
-0.148,-0.480,1.546,14.038,-41.748,120.483
-0.632,1.603,1.358,-32.593,74.951,144.043
-0.129,1.136,1.601,5.798,139.465,119.202
0.242,0.901,1.816,34.058,163.940,113.037
-0.006,0.925,1.497,41.870,236.938,126.160
-0.083,0.998,1.346,33.997,197.693,96.313
-0.057,1.166,1.254,42.603,198.486,79.407
-0.017,1.237,1.176,30.945,162.720,82.703
0.028,1.250,1.175,18.982,154.480,66.223
0.141,1.203,1.224,12.085,141.663,44.861
0.182,1.211,1.245,4.517,142.822,45.593
0.165,1.132,1.262,-9.460,160.095,46.692
0.083,1.086,1.238,-20.020,164.062,30.640
0.048,1.048,1.147,-25.208,166.321,40.833
0.051,1.064,1.064,-29.358,158.630,52.124
0.090,1.108,1.001,-33.936,153.503,42.542
0.123,1.115,0.989,-37.781,148.499,32.959
0.108,1.115,0.960,-39.978,148.621,40.710
0.079,1.114,0.922,-42.114,147.278,22.339
0.047,1.129,0.900,-43.701,144.836,33.508
0.045,1.243,0.806,-47.913,135.010,37.109
0.005,1.082,0.835,-41.321,126.282,24.780
-0.009,1.148,0.844,-51.025,118.652,19.714
0.010,1.116,0.888,-64.697,110.352,23.254
0.052,1.239,0.997,-82.397,131.714,15.564
0.065,1.049,0.491,-96.558,124.634,11.475
0.039,0.744,0.597,-66.162,116.943,20.813
0.065,0.958,0.489,-76.294,111.328,26.001
0.064,0.968,0.461,-72.144,106.689,19.165
-0.004,1.006,0.501,-75.684,94.543,17.151
-0.005,0.972,0.515,-79.224,94.727,15.015
0.087,0.895,0.436,-69.031,90.637,13.550
0.109,0.853,0.389,-55.115,89.233,15.869
0.110,0.829,0.427,-39.734,86.548,15.320
0.073,0.809,0.358,-27.222,81.543,13.245
0.083,0.710,0.398,31.189,60.303,5.920
0.110,0.629,0.421,47.302,60.913,1.160
0.134,0.599,0.442,59.875,63.049,-3.113
0.154,0.554,0.443,71.655,65.125,-1.953
0.182,0.533,0.438,78.308,65.430,0.671
0.207,0.543,0.442,81.177,64.026,3.845
0.221,0.571,0.431,82.153,60.547,7.874
0.241,0.592,0.417,79.285,54.871,13.184
0.264,0.608,0.415,73.242,49.133,14.587
0.294,0.614,0.416,68.481,44.373,15.137
0.317,0.620,0.411,63.477,40.771,14.587
0.343,0.632,0.411,59.814,39.429,10.559
0.357,0.635,0.441,56.580,39.734,7.690
0.376,0.668,0.497,51.514,41.382,3.479
0.392,0.713,0.588,45.593,46.082,-3.174
0.393,0.748,0.624,37.537,51.453,-10.620
0.373,0.745,0.657,31.677,60.059,-19.226
0.347,0.714,0.670,25.024,68.420,-27.649
0.330,0.668,0.662,20.752,78.125,-38.391
0.326,0.595,0.632,15.442,90.332,-46.570
0.339,0.572,0.589,10.071,101.501,-55.420
0.350,0.533,0.523,3.906,112.610,-61.951
0.358,0.482,0.456,-2.258,119.995,-67.322
0.359,0.447,0.373,-8.545,124.023,-71.899
0.355,0.397,0.302,-15.747,125.122,-75.378
0.347,0.353,0.243,-20.569,122.864,-79.102
0.337,0.299,0.214,-26.367,120.422,-81.543
0.322,0.245,0.161,-30.151,118.652,-84.717
0.307,0.176,0.175,-33.569,119.324,-86.121
0.297,0.117,0.127,-35.339,122.803,-85.876
0.287,0.057,0.126,-36.194,126.953,-85.266
0.283,0.017,0.088,-36.072,130.493,-83.008
0.271,-0.008,0.030,-35.706,132.629,-80.322
0.262,-0.016,-0.060,-33.752,132.446,-77.820
0.254,-0.015,-0.100,-31.921,130.066,-75.806
0.246,-0.008,-0.184,-30.273,125.427,-73.669
0.230,-0.002,-0.210,-27.954,119.995,-72.998
0.145,0.004,-0.316,-11.353,90.942,-76.904
0.115,0.003,-0.315,-6.104,84.534,-80.505
0.090,-0.004,-0.308,-1.343,79.895,-84.229
0.078,-0.013,-0.283,2.808,75.256,-88.501
0.074,-0.029,-0.257,7.263,72.815,-91.553
0.074,-0.042,-0.230,9.644,70.251,-94.604
0.074,-0.058,-0.213,11.536,68.420,-96.436
0.068,-0.073,-0.197,12.817,67.566,-97.900
0.059,-0.089,-0.190,14.526,67.505,-98.083
0.049,-0.100,-0.192,15.503,66.895,-97.656
0.042,-0.110,-0.198,15.015,65.247,-96.191
0.035,-0.117,-0.214,12.817,62.561,-94.360
0.000,-0.123,-0.224,10.071,59.692,-92.041
0.026,-0.123,-0.237,8.423,54.932,-88.989
0.020,-0.124,-0.251,3.479,51.514,-87.097
0.010,-0.126,-0.264,-2.441,47.241,-84.839
0.003,-0.127,-0.276,-10.437,44.434,-83.069
-0.005,-0.135,-0.287,-17.334,40.283,-81.604
-0.013,-0.140,-0.296,-25.635,38.635,-79.529
-0.020,-0.141,-0.317,-31.555,35.339,-78.430
-0.019,-0.138,-0.337,-38.086,33.447,-78.003
-0.022,-0.145,-0.366,-44.006,30.640,-78.613
-0.022,-0.161,-0.391,-47.424,28.381,-80.139
-0.008,-0.239,-0.465,-45.837,17.639,-82.458
-0.005,-0.256,-0.479,-42.603,14.526,-82.153
0.001,-0.277,-0.482,-38.391,11.414,-81.177
0.006,-0.293,-0.481,-33.447,8.118,-80.017
0.016,-0.301,-0.478,-29.175,5.615,-78.369
0.020,-0.311,-0.475,-24.170,4.028,-75.989
0.026,-0.311,-0.474,-20.447,2.380,-73.608
0.062,-0.313,-0.478,-16.785,-0.183,-71.228
0.036,-0.319,-0.488,-14.648,-2.441,-67.993
0.040,-0.326,-0.503,-13.000,-5.981,-64.880
0.045,-0.333,-0.517,-12.512,-11.108,-60.852
0.048,-0.345,-0.523,-11.658,-16.602,-56.763
0.050,-0.361,-0.526,-11.353,-23.315,-49.988
0.050,-0.373,-0.523,-11.597,-28.564,-42.480
0.047,-0.383,-0.517,-12.573,-34.668,-35.034
0.042,-0.386,-0.519,-14.038,-38.574,-25.085
0.040,-0.344,-0.528,-17.456,-44.189,-17.395
0.033,-0.353,-0.546,-19.958,-48.218,-7.446
0.031,-0.331,-0.564,-24.353,-55.786,-0.244
0.028,-0.304,-0.579,-27.405,-64.087,7.507
0.030,-0.174,-0.623,-34.668,-95.703,25.696
0.035,-0.129,-0.631,-35.828,-102.783,27.405
0.042,-0.097,-0.638,-37.231,-111.755,28.015
0.047,-0.056,-0.646,-38.086,-120.483,28.137
0.056,-0.026,-0.657,-38.574,-130.432,27.100
0.069,0.004,-0.663,-40.283,-140.686,25.269
0.088,0.025,-0.670,-41.931,-152.649,22.339
0.108,0.043,-0.670,-42.175,-162.598,18.494
0.128,0.061,-0.676,-41.809,-174.683,12.817
0.144,0.078,-0.668,-39.734,-185.486,6.958
0.161,0.074,-0.650,-36.316,-196.899,-1.160
0.178,0.058,-0.622,-31.433,-206.421,-7.935
0.197,0.038,-0.578,-26.733,-215.942,-15.259
0.223,0.003,-0.538,-19.531,-223.633,-22.095
0.253,-0.032,-0.490,-13.489,-231.079,-26.367
0.292,-0.069,-0.449,-5.981,-236.450,-30.945
0.321,-0.103,-0.398,2.014,-242.004,-32.959
0.356,-0.138,-0.360,8.789,-246.582,-33.752
0.381,-0.169,-0.319,15.442,-251.343,-33.203
0.498,-0.244,-0.152,31.799,-273.315,-16.541
0.524,-0.233,-0.089,31.860,-278.625,-10.010
0.541,-0.216,-0.002,31.555,-286.255,-4.578
0.550,-0.198,0.079,28.992,-292.053,1.709
0.546,-0.187,0.173,25.391,-298.767,7.080
0.537,-0.176,0.253,22.278,-303.650,12.939
0.524,-0.170,0.345,18.311,-307.678,16.846
0.516,-0.152,0.423,14.526,-310.120,21.484
0.522,-0.125,0.521,8.972,-311.096,24.231
0.531,-0.072,0.608,3.174,-310.852,26.611
0.544,-0.014,0.724,-1.831,-310.059,27.161
0.554,0.059,0.821,-4.700,-309.204,26.489
0.552,0.111,0.949,-6.287,-307.312,24.780
0.550,0.170,1.060,-5.005,-305.786,21.545
0.546,0.216,1.203,-4.089,-301.270,18.188
0.534,0.272,1.323,-2.991,-295.166,13.000
0.525,0.316,1.470,-1.221,-285.889,8.484
0.523,0.366,1.599,1.160,-276.672,3.113
0.530,0.400,1.759,3.845,-264.099,-3.479
0.536,0.424,1.886,5.615,-251.953,-8.545
0.538,0.432,2.007,7.935,-236.938,-14.832
0.534,0.428,2.136,9.583,-224.426,-19.348
0.524,0.419,2.266,10.254,-206.543,-24.231
0.511,0.400,2.320,7.935,-191.101,-27.588
0.484,0.375,2.361,5.188,-159.119,-30.884
0.457,0.315,2.383,0.793,-154.724,-32.593
0.427,0.318,2.378,-2.808,-137.756,-33.264
0.403,0.298,2.336,-7.935,-120.544,-34.363
0.380,0.269,2.287,-12.146,-107.910,-35.339
0.337,0.122,2.053,-14.832,-60.181,-38.635
0.331,0.092,1.982,-13.245,-49.438,-38.696
0.324,0.064,1.881,-11.719,-36.499,-38.696
0.319,0.028,1.825,-9.521,-26.794,-38.635
0.311,-0.005,1.743,-7.446,-16.357,-37.109
0.303,-0.044,1.649,-7.019,-10.742,-35.278
0.293,-0.074,1.540,-8.850,-5.798,-32.410
0.185,-0.080,1.491,-13.123,-5.615,-27.710
0.275,-0.094,1.365,-16.968,-7.751,-22.583
0.308,-0.151,1.446,-23.743,0.671,-22.583
0.184,-0.134,1.194,-27.832,5.798,-22.766
0.104,-0.224,1.126,-25.146,-14.404,-2.258
0.223,-0.210,1.219,-28.442,-18.250,0.427
0.308,-0.179,1.272,-40.771,0.916,28.809
0.251,-0.194,1.165,-48.462,26.245,28.687
0.166,-0.177,1.021,-42.908,24.963,30.334
0.133,-0.148,0.885,-34.546,12.695,23.743
0.124,-0.096,0.856,-29.846,-1.404,15.869
0.114,-0.097,0.849,-28.442,-10.437,9.766
0.129,-0.119,0.869,-26.123,-11.719,7.751
0.146,-0.136,0.879,-23.193,-7.141,8.484
0.144,-0.145,0.883,-17.883,-2.502,12.146
0.155,-0.140,0.873,-13.245,4.456,17.944
0.154,-0.120,0.851,-7.324,9.460,21.545
0.146,-0.099,0.821,-2.197,14.160,24.048
0.130,-0.078,0.780,0.854,15.991,25.146
0.112,-0.058,0.749,2.808,0.244,25.085
0.105,-0.006,0.723,4.456,13.550,25.513
0.107,0.000,0.712,3.784,10.803,25.696
0.107,0.034,0.708,4.272,9.216,24.719
0.118,0.068,0.702,2.930,7.935,23.621
0.123,0.086,0.696,1.404,7.202,21.790
0.122,0.097,0.691,0.244,6.470,20.386
0.115,0.101,0.685,-0.916,5.676,17.883
0.103,0.099,0.676,-1.892,5.798,16.846
0.095,0.093,0.668,-3.052,5.188,16.479
0.091,0.091,0.657,-4.150,5.981,16.357
0.086,0.086,0.647,-4.211,6.165,15.808
0.084,0.086,0.636,-5.310,6.775,15.442
0.081,0.084,0.626,-5.371,6.470,15.198
0.076,0.087,0.609,-5.737,6.653,14.587
0.078,0.082,0.595,-6.592,5.920,14.893
0.074,0.080,0.587,-6.287,6.531,14.587
0.065,0.085,0.566,-6.470,5.615,14.465
0.066,0.084,0.558,-7.141,4.761,14.343
0.060,0.088,0.546,-8.301,4.517,14.771
0.056,0.098,0.536,-9.094,2.930,14.587
0.051,0.109,0.514,-10.498,0.427,13.000
0.038,0.102,0.520,-11.597,-1.770,9.644
0.062,0.103,0.541,-12.146,-4.456,5.615
0.040,0.088,0.523,-12.878,-5.920,3.540
0.057,0.075,0.547,-10.559,-8.484,0.061
0.077,0.047,0.588,-10.986,-4.517,1.465
0.074,0.056,0.584,-11.108,0.061,6.409
0.077,0.072,0.566,-9.521,0.244,7.263
0.088,0.081,0.572,-7.690,-2.014,5.493
0.095,0.083,0.590,-6.592,-4.089,3.723
0.097,0.082,0.598,-6.287,-4.150,1.526
0.100,0.082,0.612,-6.592,-4.028,0.244
0.105,0.073,0.622,-7.629,-2.625,-0.488
0.113,0.063,0.637,-8.606,-0.916,-0.793
0.121,0.057,0.644,-9.888,1.770,-1.709
0.128,0.050,0.633,-10.864,4.883,-1.831
0.128,0.041,0.621,-10.681,6.653,-1.831
0.130,0.033,0.597,-11.475,8.057,-1.770
0.145,-0.030,0.506,-10.010,12.390,-0.427
0.147,-0.003,0.488,-8.850,13.062,0.000
0.145,-0.009,0.466,-7.385,13.245,0.000
0.143,-0.015,0.450,-5.798,13.306,-0.305
0.142,-0.021,0.432,-4.272,12.817,-0.549
0.137,-0.029,0.423,-2.563,12.756,-0.549

1.083,-1.211,0.318,-54.565,-322.815,81.909
1.069,-1.229,0.411,-49.255,-321.350,87.402
1.059,-1.241,0.493,-43.274,-320.190,92.102
1.060,-1.260,0.597,-33.752,-321.411,93.811
1.085,-1.282,0.699,-24.353,-321.045,94.482
1.119,-1.304,0.845,-11.902,-318.054,95.154
1.156,-1.328,0.981,-2.075,-297.058,97.778
1.166,-1.330,1.145,8.667,-306.763,101.868
1.166,-1.307,1.282,16.602,-300.964,108.948
1.148,-1.251,1.445,23.499,-295.959,115.723
1.139,-1.254,1.590,28.198,-290.527,125.488
1.146,-1.214,1.769,33.875,-282.043,133.545
1.158,-1.152,1.915,38.269,-270.996,142.578
1.156,-1.085,2.072,42.480,-256.531,150.818
1.127,-0.991,2.186,46.448,-242.798,160.950
1.082,-0.896,2.303,47.974,-227.844,169.006
1.018,-0.792,2.394,48.584,-215.149,178.223
0.968,-0.698,2.502,49.561,-200.989,184.998
0.934,-0.579,2.586,51.392,-187.317,190.125
0.914,-0.475,2.674,54.260,-168.152,193.787
0.718,0.010,2.761,55.542,-80.444,197.083
0.645,0.115,2.724,47.852,-64.209,194.458
0.573,0.170,2.674,42.786,-49.683,189.087
0.526,0.202,2.625,41.199,-40.344,183.655
0.495,0.206,2.593,41.321,-28.015,176.636
0.477,0.197,2.559,42.908,-15.991,172.485
0.466,0.191,2.524,44.067,-3.357,169.739
0.455,0.196,2.480,43.091,11.597,168.945
0.425,0.212,2.435,40.100,22.705,170.532
0.402,0.241,2.385,35.217,33.203,173.096
0.379,0.292,2.346,29.602,41.016,175.720
0.364,0.338,2.304,23.376,49.072,178.101
0.313,0.394,2.270,16.724,54.321,179.687
0.317,0.435,2.220,12.329,61.768,180.237
0.289,0.479,2.237,4.089,66.040,179.810
0.254,0.510,2.232,-5.127,71.289,178.711
0.235,0.546,2.218,-16.907,76.721,177.246
0.218,0.590,2.200,-25.879,81.238,174.377
0.199,0.632,2.166,-35.706,85.266,172.546
0.186,0.687,2.129,-42.053,89.355,169.067
0.178,0.727,2.077,-45.410,94.666,164.612
0.171,0.757,2.026,-44.922,99.792,159.485
0.175,0.770,1.980,-40.527,105.591,153.015
0.179,0.785,1.947,-33.691,112.122,147.217
0.178,0.802,1.919,-27.710,119.202,140.991
0.172,0.828,1.898,-20.630,125.061,135.620
0.183,0.862,1.890,-14.893,133.545,129.395
0.186,0.902,1.865,-9.277,140.259,123.901
0.085,0.928,1.816,-3.845,142.822,119.934
0.182,0.935,1.799,7.507,142.273,110.535
0.232,0.961,1.803,11.719,156.616,116.272
0.179,1.047,1.739,15.686,166.016,113.831
0.121,1.108,1.547,25.391,183.960,81.238
0.157,1.156,1.535,19.531,182.617,75.928
0.171,1.162,1.512,11.963,184.082,71.533
0.184,1.196,1.484,4.150,191.406,67.627
0.181,1.213,1.441,-1.587,200.623,62.683
0.156,1.204,1.342,-5.859,209.290,59.082
0.122,1.196,1.251,-5.920,211.548,54.993
0.104,1.198,1.153,-6.042,208.618,52.734
0.099,1.198,1.086,-7.446,203.735,52.124
0.108,1.211,1.034,-9.216,197.083,50.659
0.124,1.226,1.013,-13.428,195.374,31.799
0.118,1.226,0.983,-17.822,195.557,42.053
0.100,1.211,0.949,-22.034,197.571,36.987
0.085,1.198,0.883,-25.940,197.144,30.273
0.071,1.181,0.862,-30.273,196.228,25.574
0.063,1.167,0.814,-33.875,192.505,20.325
0.056,1.150,0.757,-38.391,188.660,15.564
0.053,1.118,0.718,-40.894,182.800,10.376
0.053,1.080,0.682,-41.504,176.086,5.920
0.056,1.017,0.660,-39.612,171.265,0.183
0.066,0.960,0.630,-35.645,166.992,-3.174
0.074,0.900,0.608,-29.907,165.161,-6.714
0.091,0.853,0.576,-24.841,163.818,-8.789
0.084,0.817,0.543,-18.860,162.903,-10.010
0.099,0.793,0.516,-14.099,160.339,-10.498
0.096,0.766,0.485,-10.315,156.616,-11.292
0.102,0.753,0.439,-8.179,149.963,-12.451
0.118,0.727,0.462,-7.385,146.118,-13.611
0.145,0.687,0.462,-7.141,141.174,-14.587
0.160,0.641,0.457,-6.104,139.221,-14.282
0.178,0.606,0.447,-5.371,137.085,-12.329
0.177,0.571,0.431,-4.272,134.399,-10.681
0.173,0.552,0.407,-5.310,132.385,-9.094
0.171,0.535,0.385,-6.104,129.395,-8.606
0.190,0.535,0.339,-3.845,124.146,-19.958
0.197,0.515,0.330,0.122,124.573,-25.513
0.200,0.484,0.315,6.531,125.977,-30.151
0.206,0.447,0.307,12.878,128.601,-35.828
0.207,0.419,0.293,21.667,132.385,-39.856
0.207,0.392,0.279,28.748,136.108,-44.006
0.209,0.372,0.252,34.973,141.724,-47.302
0.211,0.357,0.222,39.795,143.982,-51.208
0.214,0.341,0.183,42.480,146.484,-54.443
0.249,0.316,0.155,44.128,146.667,-57.800
0.221,0.286,0.095,44.861,147.034,-61.218
0.188,0.240,0.097,44.678,146.179,-63.293
0.216,0.201,0.074,43.640,145.447,-64.514
0.203,0.176,0.034,40.100,143.921,-64.758
0.179,0.167,-0.009,35.889,140.625,-64.270
0.164,0.168,-0.068,31.067,135.132,-64.514
0.151,0.177,-0.106,26.978,128.052,-65.369
0.148,0.182,-0.143,22.034,118.408,-66.589
0.144,0.180,-0.155,18.616,109.802,-68.481
0.143,0.172,-0.161,15.381,100.403,-70.007
0.134,0.146,-0.154,11.902,94.116,-70.862
0.119,0.123,-0.155,10.437,88.501,-71.289
0.103,0.108,-0.160,8.179,85.083,-70.801
0.091,0.103,-0.180,6.470,81.604,-70.862
0.083,0.101,-0.205,4.578,78.003,-71.106
0.078,0.103,-0.237,4.028,72.083,-71.777
0.078,0.103,-0.258,3.845,66.895,-72.815
0.075,0.100,-0.271,5.066,59.204,-74.402
0.071,0.089,-0.278,5.737,53.772,-76.111
0.069,0.077,-0.277,5.188,47.729,-77.332
0.066,0.063,-0.273,7.019,42.969,-78.552
0.063,0.053,-0.270,8.728,38.635,-80.627
0.082,-0.012,-0.243,8.667,25.452,-83.557
0.084,-0.028,-0.232,8.301,22.156,-83.801
0.087,-0.042,-0.223,8.179,20.325,-83.008
0.087,-0.057,-0.215,6.897,19.348,-82.397
0.092,-0.069,-0.211,4.822,18.250,-80.994
0.090,-0.078,-0.219,2.991,18.738,-79.773
0.091,-0.079,-0.231,1.160,17.090,-78.308
0.092,-0.074,-0.248,-1.404,16.479,-77.332
0.094,-0.072,-0.262,-3.662,14.526,-76.355
0.100,-0.067,-0.274,-5.737,11.963,-75.378
0.101,-0.069,-0.285,-7.263,10.193,-75.195
0.103,-0.073,-0.287,-9.033,8.667,-75.806
0.101,-0.085,-0.292,-10.986,8.301,-76.538
0.096,-0.107,-0.299,-12.146,8.484,-77.393
0.096,-0.126,-0.302,-12.390,9.399,-77.515
0.094,-0.148,-0.320,-11.841,10.925,-76.843
0.084,-0.161,-0.339,-11.353,13.489,-75.256
0.081,-0.171,-0.373,-10.437,15.442,-74.341
0.076,-0.179,-0.433,-9.338,16.418,-73.853
0.078,-0.186,-0.438,-8.789,15.198,-73.914
0.080,-0.200,-0.466,-6.958,13.367,-73.975
0.083,-0.224,-0.486,-5.066,10.803,-73.914
0.084,-0.247,-0.513,-1.770,8.911,-72.876
0.092,-0.260,-0.537,1.892,6.714,-71.472
0.101,-0.277,-0.563,4.761,4.150,-68.970
0.064,-0.299,-0.588,7.996,0.000,-66.284
0.092,-0.314,-0.629,9.216,-6.226,-62.195
0.082,-0.327,-0.656,7.812,-14.709,-58.472
0.069,-0.385,-0.720,-0.183,-47.546,-39.856
0.064,-0.386,-0.748,-2.502,-53.711,-35.645
0.062,-0.385,-0.777,-4.700,-59.448,-30.762
0.064,-0.387,-0.822,-4.761,-65.247,-27.039
0.070,-0.384,-0.863,-3.357,-71.472,-22.156
0.081,-0.345,-0.920,-0.854,-79.224,-18.555
0.101,-0.360,-0.964,1.709,-86.914,-15.137
0.124,-0.343,-1.009,5.859,-97.961,-12.512
0.146,-0.324,-1.038,10.376,-124.939,-10.071
0.175,-0.318,-1.053,16.418,-123.291,-8.057
0.212,-0.312,-1.060,22.217,-136.963,-5.554
0.240,-0.309,-1.057,30.151,-148.621,-2.991
0.274,-0.305,-1.039,36.926,-161.316,-0.671
0.304,-0.293,-1.013,44.556,-172.058,1.526
0.344,-0.283,-0.978,50.232,-184.326,3.357
0.375,-0.280,-0.924,57.800,-194.702,4.517
0.415,-0.293,-0.873,64.087,-205.994,7.324
0.446,-0.307,-0.809,72.021,-214.478,10.193
0.492,-0.308,-0.727,78.735,-222.412,14.465
0.557,-0.307,-0.692,84.900,-229.126,17.883
0.559,-0.309,-0.604,88.867,-235.657,21.667
0.685,-0.274,-0.382,86.243,-262.268,43.213
0.705,-0.267,-0.369,80.566,-271.057,47.607
0.729,-0.265,-0.290,76.050,-282.227,52.551
0.744,-0.242,-0.241,69.763,-291.077,56.641
0.757,-0.203,-0.136,65.063,-299.927,61.096
0.760,-0.148,-0.071,58.594,-306.396,63.782
0.756,-0.113,0.050,52.734,-312.500,66.284
0.752,-0.091,0.127,46.997,-317.322,67.749
0.739,-0.078,0.220,43.884,-321.533,69.153
0.726,-0.051,0.326,41.138,-323.792,70.313
0.716,-0.018,0.455,39.124,-324.280,71.350
0.714,0.042,0.553,34.546,-321.411,71.655
0.710,0.109,0.678,30.640,-316.772,71.289
0.704,0.234,0.846,27.466,-310.669,68.604
0.682,0.323,0.988,28.137,-304.321,62.805
0.639,0.393,1.151,30.701,-299.866,58.411
0.592,0.475,1.286,34.973,-297.546,53.101
0.562,0.542,1.457,40.466,-294.617,47.729
0.540,0.612,1.614,44.861,-288.513,42.175
0.524,0.658,1.795,45.288,-278.137,35.645
0.510,0.711,1.934,43.579,-267.029,29.419
0.490,0.758,2.093,38.452,-252.625,21.545
0.477,0.800,2.185,29.785,-241.333,15.320
0.470,0.828,2.263,21.362,-233.643,7.935
0.456,0.836,2.385,5.737,-226.318,2.319
0.439,0.772,2.531,-11.719,-212.524,-1.038
0.389,0.445,2.446,-59.692,-169.373,-14.404
0.364,0.363,2.461,-69.580,-162.292,-14.282
0.344,0.303,2.496,-77.881,-149.414,-12.024
0.338,0.224,2.518,-86.731,-134.094,-9.338
0.327,0.162,2.509,-90.942,-117.493,-6.958
0.316,0.094,2.456,-92.041,-96.680,-5.249
0.298,0.056,2.389,-90.271,-81.177,-2.930
0.286,0.023,2.287,-86.304,-62.866,-0.305
0.270,0.018,2.198,-81.543,-33.752,2.930
0.259,0.030,2.084,-73.853,-32.471,5.432
0.251,0.046,1.993,-66.956,-20.142,6.470
0.241,-0.013,1.870,-57.312,-9.644,5.676
0.173,0.053,1.757,-50.110,-3.479,7.080
0.110,0.117,1.607,-42.603,-2.686,7.263
0.343,-0.008,1.760,-42.053,20.630,1.038
0.161,0.022,1.452,-38.208,29.480,13.000
0.180,0.090,1.363,-27.344,19.470,-17.395
0.020,0.047,1.331,-22.888,13.550,-39.551
0.171,-0.157,1.431,-24.170,28.442,-11.536
0.307,-0.100,1.422,-27.466,71.106,24.109
0.289,-0.067,1.244,-32.410,98.450,32.227
0.232,-0.057,0.960,-28.442,97.229,50.171
0.115,0.014,0.730,-11.780,61.890,41.260
0.095,0.059,0.710,-10.986,19.043,28.809
0.092,0.042,0.750,-24.353,-3.052,19.104
0.104,-0.005,0.778,-33.997,-13.611,17.395
0.125,-0.046,0.803,-42.297,-14.648,18.677
0.143,-0.068,0.807,-46.570,-8.728,17.395
0.140,-0.069,0.792,-46.021,-2.747,20.264
0.133,-0.082,0.771,-43.945,1.404,26.428
0.112,-0.085,0.736,-42.053,4.333,29.846
0.085,-0.086,0.696,-39.124,5.493,35.889
0.070,-0.080,0.652,-34.058,5.371,39.429
0.029,0.072,0.629,-9.644,-5.798,35.950
0.021,0.121,0.650,-5.432,-6.592,31.677
0.017,0.160,0.683,-0.916,-7.874,26.428
-0.027,0.214,0.692,1.526,-8.667,20.081
0.026,0.173,0.717,3.601,-7.690,16.296
0.029,0.181,0.714,6.104,-7.263,9.277
0.037,0.148,0.741,7.812,-5.859,6.653
0.039,0.127,0.749,7.874,-2.258,8.911
0.054,0.138,0.742,7.324,-0.549,11.353
0.057,0.149,0.742,6.592,1.160,10.742
0.066,0.127,0.734,5.676,2.563,8.972
0.059,0.094,0.731,4.089,4.517,6.836
0.055,0.106,0.722,1.404,7.019,4.395
0.053,0.089,0.706,-2.380,9.583,5.005
0.050,0.083,0.677,-4.761,11.658,3.418
0.059,0.064,0.648,-6.531,12.207,0.854
0.053,0.038,0.625,-9.705,12.878,0.854
0.052,0.032,0.589,-12.878,13.306,5.432
0.092,0.034,0.553,-15.076,14.160,8.118
0.077,0.027,0.523,-16.174,13.672,10.132
0.088,0.023,0.496,-16.174,13.184,11.353
0.088,0.025,0.466,-16.052,11.963,11.902
0.085,0.029,0.441,-14.832,10.925,11.597
0.085,0.027,0.427,-14.893,8.362,11.292
0.086,0.023,0.414,-13.428,7.629,10.498
0.087,0.012,0.405,-11.658,5.310,8.972
0.087,0.011,0.400,-9.827,4.822,7.996
0.087,0.007,0.401,-6.348,3.357,6.775
0.089,0.003,0.437,-4.089,4.028,5.676
0.088,-0.003,0.411,-0.977,3.479,4.822
0.090,0.000,0.417,1.282,4.272,4.333
0.093,0.003,0.424,2.930,3.601,3.967
0.107,0.007,0.429,3.967,2.014,4.150
0.111,0.015,0.439,4.456,1.221,4.150
0.102,0.021,0.429,5.005,0.549,4.517
0.115,0.023,0.444,5.554,-0.610,2.747
0.152,0.009,0.462,5.554,1.709,4.028
0.117,0.016,0.457,5.676,4.761,7.324
0.118,0.023,0.453,4.700,6.287,9.766
0.115,0.026,0.451,3.418,7.019,11.658
0.106,0.030,0.445,2.380,7.568,12.268
0.087,0.034,0.437,1.892,7.141,11.963
0.085,0.034,0.429,1.038,6.165,11.353
0.078,0.030,0.419,0.488,5.493,9.644
0.073,0.029,0.414,-0.061,3.723,8.118
0.068,0.023,0.411,0.732,2.686,7.202
0.074,0.017,0.412,2.869,2.808,6.042
0.079,0.014,0.409,5.249,2.808,5.432
0.087,0.008,0.409,7.568,3.113,4.883
0.095,0.008,0.411,10.803,3.540,4.333
0.101,0.006,0.409,14.160,4.761,4.211
0.109,0.011,0.414,15.991,5.920,4.028
0.108,0.016,0.421,17.883,6.897,3.723
0.106,0.019,0.422,19.043,6.592,3.540
0.106,0.022,0.429,19.836,6.653,3.357
0.105,0.026,0.435,18.860,5.920,3.540
0.104,0.030,0.440,18.616,5.981,3.784
0.103,0.041,0.445,17.212,5.249,3.723
0.101,0.051,0.446,15.320,5.432,3.052
0.104,0.065,0.450,12.878,4.639,2.502
0.107,0.071,0.452,10.559,3.784,1.709
0.108,0.075,0.452,8.118,3.784,0.977
0.104,0.073,0.449,6.409,2.808,0.671
0.103,0.073,0.448,4.150,0.671,0.427
0.108,0.068,0.454,2.747,0.061,-0.061
0.108,0.062,0.458,1.770,-0.977,-0.122
0.109,0.052,0.463,0.549,-0.977,-0.061
0.109,0.045,0.467,0.183,-2.075,-0.793
0.109,0.037,0.473,0.305,-1.709,-0.549
0.111,0.030,0.476,0.488,-1.648,-0.488
0.107,0.023,0.477,1.099,-1.282,-0.671
0.105,0.025,0.475,1.343,-0.671,-0.427
0.102,0.029,0.474,2.014,-1.160,-0.122
0.102,0.034,0.473,3.235,-0.916,-0.854

0.598,-0.475,1.462,-38.635,-178.467,126.892
0.578,-0.466,1.474,-31.677,-166.687,126.099
0.552,-0.455,1.482,-23.315,-159.912,125.488
0.532,-0.437,1.501,-14.099,-154.541,126.160
0.519,-0.410,1.536,-6.897,-151.733,127.502
0.521,-0.387,1.591,3.418,-146.423,127.258
0.535,-0.369,1.649,13.306,-140.381,126.160
0.553,-0.357,1.718,23.621,-128.906,126.587
0.572,-0.331,1.774,30.273,-118.713,127.502
0.578,-0.284,1.820,33.936,-105.957,129.578
0.555,-0.223,1.846,33.752,-97.961,133.057
0.525,-0.179,1.868,30.762,-91.614,135.803
0.495,-0.145,1.892,26.550,-88.379,138.062
0.481,-0.121,1.937,23.071,-84.717,140.442
0.480,-0.108,1.981,18.677,-79.224,141.602
0.485,-0.100,2.032,15.137,-69.336,142.822
0.494,-0.078,2.073,7.874,-60.486,144.775
0.497,-0.027,2.101,0.000,-48.340,146.362
0.498,0.046,2.113,-13.367,-40.344,146.912
0.479,0.105,2.105,-25.940,-31.982,146.973
0.462,0.158,2.091,-38.757,-27.466,146.851
0.458,0.191,2.078,-47.302,-23.254,145.447
0.581,0.155,2.421,-5.981,-8.911,120.667
0.546,0.101,2.344,-18.555,7.874,137.512
0.477,0.191,2.095,-20.081,31.250,141.907
0.464,0.374,2.062,7.751,18.616,140.015
0.471,0.387,2.282,16.968,40.039,110.474
0.513,0.347,2.523,11.780,72.449,126.953
0.447,0.434,2.323,16.174,94.238,134.155
0.381,0.461,2.194,16.479,92.834,127.747
0.332,0.511,2.110,44.983,85.571,146.118
0.307,0.717,2.091,47.546,73.181,136.230
0.583,0.724,2.336,48.035,80.261,126.038
0.547,0.788,2.406,32.776,113.708,124.817
0.406,0.871,2.240,24.170,130.249,133.301
0.385,0.921,2.160,25.879,126.770,121.704
0.414,0.957,2.144,21.362,121.399,112.000
0.439,1.002,2.167,14.343,123.230,111.938
0.454,0.994,2.197,7.385,128.601,108.398
0.449,1.006,2.215,-3.113,140.930,107.178
0.439,0.997,2.161,-10.193,155.884,110.474
0.410,0.991,2.114,-10.315,167.480,110.352
0.365,1.005,2.026,-5.798,175.171,99.182
0.348,1.044,1.936,2.319,182.007,93.262
0.116,1.098,1.853,11.230,186.890,88.196
0.366,1.050,1.772,23.804,192.383,80.261
0.241,1.037,1.725,35.645,189.636,84.961
0.359,1.140,1.760,46.936,205.566,80.200
0.397,1.158,1.739,51.331,224.060,52.002
0.317,1.099,1.596,56.152,239.197,59.937
0.258,1.117,1.487,66.956,237.244,62.500
0.233,1.159,1.418,68.970,229.553,58.716
0.229,1.161,1.378,63.782,220.276,53.162
0.260,1.159,1.366,56.458,217.163,52.368
0.288,1.167,1.344,46.631,222.107,49.011
0.333,1.181,1.329,34.729,233.459,43.518
0.322,1.172,1.228,25.085,251.587,35.828
0.276,1.154,1.106,18.799,259.888,30.945
0.221,1.154,0.949,17.761,260.376,22.827
0.218,1.160,0.746,9.766,233.582,-1.343
0.225,1.130,0.719,5.249,227.661,-6.226
0.230,1.097,0.693,1.587,222.961,-12.817
0.229,1.056,0.661,-3.357,217.468,-15.747
0.229,1.014,0.624,-7.446,212.158,-18.433
0.240,0.986,0.591,-11.963,206.177,-22.156
0.260,0.949,0.568,-14.954,203.552,-27.832
0.272,0.901,0.545,-17.761,202.148,-32.410
0.286,0.818,0.532,-17.639,202.454,-38.208
0.291,0.742,0.510,-14.832,203.430,-39.673
0.300,0.663,0.483,-10.925,204.163,-38.391
0.304,0.627,0.441,-6.104,205.017,-36.804
0.316,0.606,0.396,-1.465,205.261,-34.424
0.322,0.600,0.335,2.136,204.041,-34.058
0.324,0.593,0.284,6.104,201.172,-35.278
0.329,0.583,0.241,9.216,196.594,-38.940
0.332,0.556,0.206,12.878,192.871,-42.908
0.336,0.520,0.183,14.709,189.331,-49.072
0.339,0.466,0.155,17.212,186.829,-52.979
0.344,0.424,0.125,18.860,185.181,-56.152
0.347,0.389,0.079,18.127,182.922,-57.922
0.349,0.355,0.035,17.029,179.749,-59.204
0.347,0.332,-0.026,15.259,174.744,-60.120
0.341,0.314,-0.074,14.038,169.189,-61.584
0.339,0.301,-0.121,13.184,160.828,-63.049
0.338,0.278,-0.151,12.451,154.480,-64.453
0.334,0.259,-0.176,13.184,146.729,-66.162
0.332,0.237,-0.197,14.160,142.029,-67.566
0.324,0.224,-0.227,14.587,137.146,-68.604
0.305,0.182,-0.358,14.221,115.601,-72.021
0.300,0.180,-0.368,12.756,108.948,-72.998
0.296,0.174,-0.367,11.047,100.098,-75.134
0.296,0.155,-0.361,7.935,92.468,-76.172
0.291,0.133,-0.349,6.836,85.999,-77.881
0.287,0.097,-0.333,5.310,81.360,-78.918
0.285,0.070,-0.326,3.723,78.918,-79.529
0.277,0.039,-0.324,2.747,76.965,-79.529
0.262,0.022,-0.328,1.526,74.829,-79.407
0.245,-0.001,-0.345,0.305,72.388,-79.407
0.229,-0.011,-0.352,-0.610,68.054,-80.261
0.219,-0.020,-0.359,-1.526,64.270,-81.177
0.204,-0.025,-0.363,-2.747,59.998,-82.153
0.192,-0.034,-0.367,-4.028,56.396,-83.069
0.178,-0.044,-0.404,-5.188,53.711,-83.618
0.165,-0.056,-0.377,-6.470,51.147,-83.801
0.149,-0.068,-0.379,-7.202,49.438,-84.167
0.134,-0.083,-0.380,-7.202,47.791,-84.167
0.114,-0.092,-0.379,-7.507,45.593,-84.229
0.100,-0.101,-0.379,-7.812,44.495,-84.045
0.090,-0.109,-0.381,-7.385,42.236,-83.313
0.083,-0.121,-0.386,-7.812,41.809,-82.642
0.077,-0.132,-0.392,-7.629,41.199,-82.092
0.079,-0.143,-0.402,-5.798,40.771,-81.421
0.074,-0.154,-0.419,-2.258,41.443,-81.116
0.072,-0.167,-0.437,1.709,41.504,-80.566
0.073,-0.176,-0.459,5.554,41.504,-79.712
0.075,-0.181,-0.481,10.864,40.039,-78.613
0.074,-0.182,-0.502,13.733,37.598,-77.087
0.075,-0.147,-0.567,20.386,23.132,-70.984
0.075,-0.152,-0.576,19.226,18.860,-69.580
0.074,-0.159,-0.586,18.127,13.550,-68.909
0.074,-0.178,-0.592,16.418,9.155,-67.627
0.083,-0.193,-0.599,14.465,3.418,-65.796
0.091,-0.208,-0.602,11.230,-1.465,-63.171
0.099,-0.219,-0.610,7.263,-7.935,-60.730
0.109,-0.227,-0.619,1.099,-13.428,-57.617
0.121,-0.233,-0.625,-5.859,-20.630,-54.871
0.127,-0.251,-0.635,-15.381,-27.222,-51.514
0.131,-0.269,-0.646,-24.414,-35.706,-47.546
0.129,-0.303,-0.660,-31.555,-42.297,-42.480
0.122,-0.330,-0.673,-38.269,-48.706,-37.903
0.100,-0.366,-0.689,-41.931,-52.490,-32.471
0.078,-0.392,-0.718,-44.189,-56.274,-28.076
0.064,-0.408,-0.742,-45.715,-60.120,-22.705
0.063,-0.415,-0.782,-45.715,-62.439,-18.127
0.068,-0.413,-0.828,-44.312,-66.589,-12.024
0.070,-0.400,-0.885,-41.809,-70.618,-7.324
0.077,-0.384,-0.948,-38.086,-78.247,-2.136
0.080,-0.355,-0.996,-32.043,-85.754,1.648
0.116,-0.226,-1.117,-0.122,-134.399,3.845
0.141,-0.206,-1.112,8.423,-149.475,2.197
0.177,-0.186,-1.089,19.592,-162.109,1.160
0.212,-0.178,-1.043,27.649,-176.453,0.244
0.251,-0.176,-0.992,34.729,-187.744,0.183
0.280,-0.184,-0.932,39.307,-200.623,0.610
0.316,-0.202,-0.885,42.480,-210.022,0.916
0.346,-0.219,-0.833,44.434,-221.985,2.075
0.383,-0.235,-0.792,45.593,-230.896,4.456
0.424,-0.245,-0.744,46.143,-241.821,6.775
0.470,-0.245,-0.702,45.532,-250.305,10.071
0.507,-0.252,-0.652,46.082,-260.559,13.489
0.546,-0.256,-0.607,47.241,-268.433,16.602
0.577,-0.268,-0.542,48.584,-277.527,19.592
0.615,-0.278,-0.487,51.941,-283.447,23.315
0.644,-0.287,-0.420,54.993,-289.001,26.306
0.679,-0.296,-0.373,57.983,-292.175,30.579
0.700,-0.303,-0.319,60.852,-296.448,34.668
0.727,-0.304,-0.283,64.148,-299.255,39.612
0.754,-0.293,-0.227,66.833,-303.223,43.762
0.773,-0.264,-0.173,69.580,-305.359,47.791
0.780,-0.247,-0.105,71.716,-308.289,49.988
0.782,-0.186,0.122,86.121,-312.805,54.321
0.804,-0.152,0.184,86.548,-315.552,57.190
0.826,-0.111,0.282,85.205,-320.984,59.509
0.839,-0.057,0.373,82.275,-327.515,63.049
0.842,-0.014,0.505,77.454,-336.426,66.162
0.837,0.030,0.637,70.068,-344.910,69.824
0.838,0.065,0.827,64.270,-355.286,72.754
0.837,0.111,1.015,57.129,-361.084,75.867
0.838,0.162,1.258,52.185,-363.770,79.712
0.848,0.269,1.510,46.753,-360.962,80.811
0.856,0.388,1.826,40.344,-350.891,79.468
0.841,0.544,2.058,31.738,-337.891,75.684
0.789,0.667,2.274,23.560,-320.923,68.665
0.773,0.804,2.487,13.062,-298.157,59.937
0.748,0.849,2.630,6.470,-278.748,47.119
0.641,0.941,2.820,-18.127,-271.118,37.781
0.742,0.861,2.884,-5.310,-244.263,20.935
0.751,0.901,2.942,-0.610,-205.261,12.390
0.640,0.859,2.897,-25.696,-177.002,6.409
0.572,0.784,2.841,-46.387,-147.949,1.831
0.490,0.720,2.750,-40.833,-130.798,-1.465
0.448,0.678,2.624,-45.471,-119.385,-4.517
0.437,0.614,2.550,-49.744,-114.258,-8.240
0.447,0.544,2.505,-54.199,-104.736,-12.756
0.452,0.441,2.478,-58.838,-93.323,-13.550
0.444,0.360,2.420,-77.454,-76.782,-13.428
0.417,0.271,2.345,-63.293,-62.988,-12.695
0.306,0.093,1.949,-60.364,-14.771,2.625
0.288,0.087,1.834,-62.195,-8.057,5.859
0.273,0.080,1.758,-64.758,-5.066,8.545
0.234,0.075,1.645,-67.688,-0.549,12.878
0.247,0.057,1.570,-70.801,-0.244,14.404
0.126,0.114,1.442,-72.266,-2.747,22.034
0.259,0.066,1.427,-73.181,-6.531,23.682
0.304,0.069,1.458,-82.275,18.799,18.982
0.214,0.091,1.293,-83.740,25.757,10.620
-0.078,-0.019,0.984,-64.880,-5.798,0.549
0.046,-0.047,1.141,-51.392,-28.625,20.874
0.385,0.119,1.358,-65.857,16.113,47.302
0.382,0.103,1.214,-86.731,57.800,54.688
0.149,0.078,0.899,-80.322,55.176,40.955
0.055,0.013,0.741,-45.288,21.667,25.757
0.046,0.041,0.748,-24.963,-2.258,16.479
0.062,0.073,0.796,-19.470,-13.000,16.174
0.114,0.069,0.845,-21.729,-13.733,19.043
0.135,0.044,0.898,-22.644,-8.057,18.738
0.146,0.009,0.927,-15.015,-5.554,0.854
0.152,0.002,0.948,-4.700,-1.831,14.465
0.150,0.010,0.958,4.333,0.122,15.076
0.142,0.022,0.958,6.897,2.808,16.418
0.141,0.026,0.951,8.972,3.113,19.958
0.134,0.041,0.943,9.827,2.686,25.208
0.141,0.064,0.948,11.475,0.916,28.198
0.141,0.099,0.963,10.986,1.160,30.334
0.140,0.134,0.975,9.705,2.686,31.250
0.133,0.171,0.971,6.714,6.958,30.579
0.128,0.195,0.963,2.197,11.780,27.771
0.120,0.217,0.938,-3.113,17.700,25.635
0.110,0.227,0.900,-9.155,21.362,21.973
0.109,0.228,0.846,-15.747,23.376,19.348
0.108,0.221,0.804,-19.775,24.414,16.724
0.064,0.218,0.763,-23.743,24.353,14.099
0.128,0.181,0.715,-26.001,23.376,11.230
0.104,0.158,0.704,-26.184,23.560,9.521
0.133,0.153,0.690,-26.978,24.719,6.714
0.103,0.141,0.626,-27.649,28.137,3.601
0.100,0.114,0.608,-24.658,30.090,-0.244
0.114,0.096,0.580,-22.217,34.973,-3.235
0.106,0.069,0.525,-18.799,37.231,-5.249
0.102,0.046,0.480,-14.771,37.109,-6.104
0.112,0.018,0.452,-10.193,36.865,-5.920
0.120,0.003,0.430,-7.507,36.377,-4.089
0.122,-0.007,0.408,-4.456,33.813,-3.052
0.124,-0.024,0.396,-4.028,32.471,-2.625
0.118,-0.033,0.380,-3.235,30.457,-2.686
0.115,-0.041,0.369,-2.380,28.687,-2.380
0.108,-0.044,0.352,-2.136,25.818,-1.282
0.107,-0.045,0.344,-2.380,23.560,0.366
0.108,-0.041,0.335,-2.930,20.813,2.075
0.110,-0.034,0.332,-1.831,18.127,3.906
0.112,-0.022,0.338,-2.075,15.015,4.517
0.116,-0.012,0.343,-2.258,13.245,4.944
0.118,-0.005,0.351,-1.892,11.536,5.554
0.114,0.004,0.358,-1.526,9.766,5.981
0.130,0.006,0.373,-0.916,9.705,6.042
0.119,0.010,0.371,-0.122,9.094,5.737
0.127,0.009,0.381,1.221,9.399,5.432
0.094,0.018,0.387,1.892,11.414,5.798
0.122,0.020,0.383,2.930,11.536,5.310
0.110,0.023,0.379,4.456,11.841,4.456
0.114,0.023,0.374,4.456,11.597,2.930
0.115,0.020,0.371,5.127,10.193,0.916
0.118,0.008,0.371,5.554,9.705,-0.366
0.124,-0.005,0.379,5.798,7.751,-0.916
0.127,-0.020,0.389,5.798,6.958,-0.916
0.132,-0.028,0.401,4.578,6.226,0.122
0.133,-0.035,0.410,2.625,5.859,1.160
0.135,-0.035,0.415,1.770,5.249,2.869
0.134,-0.032,0.418,0.183,5.432,4.028
0.128,-0.026,0.416,-1.343,5.066,5.127
0.123,-0.020,0.414,-2.869,3.906,5.554
0.122,-0.013,0.417,-4.333,3.113,5.737
0.120,-0.012,0.421,-4.944,2.014,6.104
0.122,-0.010,0.425,-5.493,1.282,6.653
0.118,-0.007,0.427,-5.066,1.587,7.751
0.113,0.007,0.427,-5.737,2.014,9.094
0.111,0.017,0.423,-6.531,3.235,9.766
0.104,0.031,0.421,-7.019,2.747,9.888
0.098,0.039,0.419,-7.690,2.991,8.972
0.091,0.053,0.413,-7.996,2.502,7.996
0.086,0.061,0.412,-7.812,2.197,6.226
0.087,0.060,0.410,-8.423,1.343,4.517
0.087,0.056,0.409,-7.935,0.854,2.747
0.089,0.054,0.409,-7.690,0.305,1.343
0.092,0.046,0.404,-7.141,-0.366,-0.916
0.093,0.032,0.400,-6.348,-0.793,-2.136
0.096,0.026,0.398,-5.432,-1.221,-3.113
0.097,0.017,0.396,-2.991,-1.648,-4.517
0.099,0.009,0.397,-0.549,-2.197,-5.310
0.104,-0.000,0.406,1.282,-3.052,-6.348
0.107,-0.007,0.411,3.540,-3.235,-7.080
0.109,-0.010,0.427,4.395,-3.296,-7.080
0.114,-0.018,0.438,5.188,-3.845,-6.958
0.117,-0.024,0.453,6.287,-3.662,-6.165
0.115,-0.027,0.463,6.042,-4.028,-4.089
0.112,-0.032,0.478,5.493,-3.235,-2.930
0.108,-0.024,0.485,5.127,-2.380,-0.916
0.109,-0.013,0.488,3.235,-2.625,1.038
0.107,0.008,0.490,1.099,-1.770,2.380
0.110,0.019,0.489,-0.549,-2.014,3.357
0.111,0.038,0.482,-3.174,-2.136,3.784
0.111,0.049,0.479,-5.371,-3.357,4.333
0.110,0.061,0.480,-6.775,-5.188,3.723
0.105,0.067,0.481,-8.240,-6.042,3.601
0.103,0.068,0.491,-9.521,-7.385,3.174
0.103,0.064,0.497,-9.949,-7.507,2.075
0.105,0.057,0.505,-10.437,-7.263,1.404
0.108,0.050,0.510,-11.902,-7.568,0.549
0.110,0.048,0.513,-12.756,-7.080,-0.488
0.116,0.040,0.512,-13.245,-6.897,-0.610

0.759,-0.323,1.427,-13.672,-236.267,129.822
0.758,-0.264,1.520,-20.142,-241.211,126.831
0.753,-0.222,1.597,-22.888,-218.811,123.474
0.754,-0.202,1.700,-21.790,-225.098,120.850
0.777,-0.197,1.794,-17.334,-216.858,117.859
0.797,-0.191,1.903,-10.071,-203.064,115.967
0.809,-0.179,1.987,-3.784,-174.133,115.051
0.803,-0.164,2.074,2.502,-172.424,114.807
0.786,-0.135,2.142,5.859,-158.752,114.685
0.769,-0.107,2.221,7.507,-144.226,115.967
0.743,-0.085,2.287,7.202,-132.507,117.065
0.724,-0.072,2.356,4.883,-119.263,118.958
0.701,-0.068,2.409,2.686,-107.483,121.216
0.688,-0.070,2.451,0.183,-91.553,123.352
0.673,-0.082,2.469,-0.793,-76.233,126.831
0.666,-0.086,2.463,-6.042,-56.946,130.249
0.647,-0.074,2.429,-13.000,-41.138,134.216
0.629,-0.057,2.350,-22.278,-26.245,138.489
0.596,-0.028,2.270,-30.884,-16.968,144.226
0.570,0.003,2.185,-40.222,-9.460,149.902
0.541,0.048,2.120,-46.448,-5.859,156.006
0.453,0.158,1.973,-56.458,13.000,161.682
0.434,0.171,1.934,-54.810,21.790,160.767
0.423,0.187,1.896,-52.307,29.663,159.241
0.378,0.203,1.844,-49.500,37.781,157.043
0.340,0.236,1.783,-45.044,43.152,155.273
0.323,0.274,1.749,-42.786,48.340,151.550
0.267,0.293,1.669,-39.429,51.941,148.254
0.227,0.301,1.622,-34.851,52.185,142.883
0.220,0.315,1.603,-29.358,54.626,136.963
0.231,0.322,1.598,-27.039,56.885,130.432
0.238,0.247,1.529,-26.367,57.617,126.099
0.218,0.296,1.568,-26.672,55.786,124.634
0.187,0.316,1.437,-27.161,50.415,119.690
0.315,0.255,1.555,-24.475,47.119,117.065
0.308,0.269,1.578,-31.799,65.125,124.878
0.252,0.298,1.504,-31.494,67.688,131.042
0.236,0.312,1.460,-27.039,61.646,130.066
0.232,0.325,1.495,-20.508,51.453,125.732
0.278,0.350,1.586,-16.907,49.866,124.146
0.299,0.370,1.628,-14.038,53.467,125.366
0.300,0.410,1.667,-12.329,76.233,129.578
0.301,0.449,1.705,-8.606,68.665,132.202
0.311,0.498,1.735,-3.845,74.829,131.836
0.312,0.546,1.757,1.099,83.069,130.981
0.311,0.607,1.759,3.296,90.332,130.371
0.310,0.664,1.752,7.141,99.609,128.479
0.309,0.718,1.743,9.033,108.398,125.793
0.297,0.757,1.690,10.254,118.225,122.070
0.290,0.797,1.688,12.024,126.221,117.554
0.280,0.834,1.643,11.169,132.507,112.732
0.269,0.877,1.588,11.780,138.489,108.459
0.254,0.926,1.535,11.169,141.785,102.722
0.208,0.964,1.385,5.188,147.461,77.637
0.200,0.956,1.362,4.028,149.719,73.059
0.198,0.948,1.342,2.930,152.039,68.542
0.203,0.948,1.312,0.977,155.518,64.148
0.205,0.942,1.280,-0.793,156.616,59.998
0.208,0.943,1.249,-1.953,159.363,55.969
0.215,0.944,1.214,-4.700,160.278,52.368
0.226,0.927,1.183,-6.348,162.231,48.462
0.229,0.877,1.146,-8.423,164.246,45.410
0.231,0.882,1.112,-8.423,167.664,42.236
0.231,0.861,1.068,-8.789,170.715,39.795
0.220,0.839,1.028,-9.277,174.561,37.231
0.211,0.823,0.974,-10.376,177.551,35.156
0.208,0.802,0.927,-11.658,179.687,32.715
0.215,0.788,0.888,-12.451,180.542,29.358
0.249,0.766,0.826,-14.526,180.359,26.367
0.221,0.738,0.776,-15.991,178.955,23.315
0.235,0.697,0.734,-17.273,177.063,21.240
0.237,0.662,0.693,-18.127,174.377,20.203
0.242,0.651,0.663,-18.677,170.654,17.517
0.250,0.629,0.634,-20.752,170.654,13.367
0.247,0.611,0.584,-22.705,168.152,10.681
0.237,0.593,0.531,-22.339,164.734,7.935
0.234,0.584,0.491,-22.156,157.959,5.737
0.242,0.572,0.471,-20.325,151.611,1.831
0.250,0.555,0.463,-17.883,146.484,-2.930
0.259,0.520,0.462,-14.954,144.043,-8.362
0.266,0.479,0.459,-12.268,143.433,-13.855
0.272,0.423,0.447,-7.812,143.616,-18.433
0.278,0.383,0.428,-2.991,146.545,-22.705
0.277,0.337,0.403,1.892,148.560,-25.696
0.274,0.308,0.374,6.104,150.940,-28.748
0.276,0.278,0.335,11.780,151.123,-30.396
0.280,0.251,0.308,16.663,150.330,-32.288
0.280,0.228,0.278,22.095,149.353,-32.959
0.280,0.205,0.254,26.306,148.132,-33.386
0.221,0.197,0.147,32.654,143.738,-33.997
0.206,0.200,0.116,31.128,140.991,-35.034
0.197,0.200,0.086,29.602,138.489,-37.354
0.197,0.200,0.051,26.611,134.277,-39.063
0.206,0.196,0.024,23.193,130.188,-40.405
0.209,0.188,0.001,20.996,124.695,-41.321
0.210,0.168,-0.014,18.555,120.361,-41.626
0.205,0.157,-0.019,16.724,115.479,-40.466
0.199,0.153,-0.029,14.587,112.061,-39.612
0.186,0.155,-0.040,13.245,107.605,-39.795
0.180,0.164,-0.057,11.108,105.835,-39.978
0.174,0.172,-0.071,9.033,102.356,-41.870
0.167,0.175,-0.089,7.812,98.389,-44.312
0.155,0.173,-0.102,7.141,95.032,-47.546
0.151,0.168,-0.113,6.592,90.210,-50.537
0.142,0.159,-0.121,6.714,87.646,-54.504
0.137,0.151,-0.119,6.409,84.351,-56.885
0.130,0.141,-0.121,6.165,82.520,-60.181
0.129,0.132,-0.121,4.517,80.505,-62.988
0.122,0.120,-0.124,2.869,79.590,-65.247
0.122,0.106,-0.126,-0.488,77.942,-66.589
0.124,0.087,-0.135,-4.822,76.721,-68.298
0.121,0.072,-0.146,-8.606,74.890,-69.519
0.113,0.058,-0.156,-12.695,73.242,-70.374
0.105,0.043,-0.171,-31.250,70.251,-70.740
0.094,0.018,-0.182,-17.334,68.359,-69.885
0.085,0.004,-0.193,-17.578,65.552,-68.604
0.077,-0.004,-0.200,-17.395,64.148,-66.650
0.066,-0.003,-0.212,-17.151,62.622,-64.880
0.049,0.001,-0.227,-15.381,61.768,-63.782
-0.007,0.041,-0.304,-6.287,54.077,-64.453
-0.015,0.049,-0.323,-3.906,50.720,-65.552
-0.020,0.055,-0.331,-2.502,46.570,-67.078
-0.027,0.059,-0.336,-1.282,42.358,-68.176
-0.036,0.058,-0.334,-0.427,38.696,-69.153
-0.045,0.053,-0.330,-0.305,34.790,-70.190
-0.054,0.038,-0.324,-0.793,16.907,-70.801
-0.062,0.027,-0.320,-2.563,28.687,-71.289
-0.067,0.012,-0.318,-5.371,26.306,-71.289
-0.068,-0.001,-0.325,-8.545,22.522,-70.923
-0.069,-0.011,-0.328,-10.315,20.142,-70.313
-0.070,-0.022,-0.337,-12.878,16.174,-69.580
-0.071,-0.030,-0.340,-14.648,12.024,-67.993
-0.072,-0.046,-0.347,-15.625,8.789,-67.078
-0.075,-0.061,-0.354,-16.357,5.554,-65.857
-0.081,-0.084,-0.355,-15.747,4.028,-64.575
-0.090,-0.103,-0.362,-13.489,2.441,-62.744
-0.098,-0.117,-0.372,-10.681,1.465,-61.157
-0.099,-0.124,-0.394,-7.324,-0.061,-59.448
-0.094,-0.120,-0.414,-4.517,-1.709,-57.434
-0.093,-0.115,-0.442,-2.014,-4.883,-55.786
-0.089,-0.112,-0.461,0.732,-8.301,-53.894
-0.077,-0.100,-0.495,10.315,-28.381,-50.781
-0.073,-0.099,-0.504,12.024,-31.982,-50.049
-0.065,-0.100,-0.519,13.306,-36.499,-48.950
-0.059,-0.095,-0.535,13.794,-40.405,-48.157
-0.053,-0.099,-0.555,15.137,-46.692,-47.668
-0.047,-0.107,-0.572,16.296,-52.185,-46.509
-0.044,-0.115,-0.584,18.066,-59.326,-45.105
-0.037,-0.126,-0.591,19.653,-65.552,-43.701
-0.036,-0.139,-0.587,22.583,-72.144,-42.236
-0.036,-0.153,-0.585,25.391,-92.590,-40.405
-0.034,-0.160,-0.583,28.687,-83.069,-38.391
-0.023,-0.161,-0.580,31.555,-86.792,-36.438
-0.013,-0.152,-0.585,33.386,-93.018,-34.851
0.005,-0.148,-0.586,33.447,-99.304,-33.813
0.019,-0.146,-0.587,34.241,-105.225,-33.020
0.038,-0.145,-0.579,35.217,-112.671,-32.227
0.056,-0.152,-0.568,35.095,-118.530,-31.738
0.074,-0.164,-0.560,34.546,-125.671,-30.212
0.137,-0.172,-0.529,39.185,-146.790,-23.682
0.151,-0.172,-0.522,42.297,-151.184,-23.499
0.164,-0.177,-0.510,45.288,-156.555,-23.560
0.186,-0.186,-0.500,49.255,-160.706,-24.109
0.202,-0.198,-0.489,52.429,-164.856,-24.597
0.227,-0.218,-0.478,55.847,-169.556,-24.658
0.249,-0.239,-0.463,58.472,-174.805,-23.926
0.274,-0.263,-0.453,60.059,-179.565,-21.484
0.298,-0.282,-0.440,61.035,-185.242,-19.226
0.328,-0.305,-0.432,62.012,-192.139,-15.747
0.355,-0.319,-0.410,62.988,-198.914,-12.146
0.391,-0.330,-0.394,62.927,-206.421,-7.568
0.420,-0.338,-0.359,63.538,-213.989,-2.808
0.454,-0.347,-0.326,63.416,-221.069,3.418
0.476,-0.351,-0.281,62.866,-228.699,8.850
0.499,-0.359,-0.240,59.509,-235.046,15.930
0.522,-0.362,-0.198,56.213,-242.371,21.545
0.528,-0.357,-0.173,53.467,-264.099,28.076
0.537,-0.315,-0.143,49.316,-257.263,33.142
0.575,-0.208,0.104,43.518,-296.021,48.828
0.590,-0.177,0.191,43.213,-302.979,50.232
0.603,-0.142,0.294,45.166,-306.458,51.086
0.621,-0.112,0.383,46.997,-308.105,50.964
0.639,-0.072,0.494,49.316,-309.753,50.781
0.659,-0.011,0.601,50.842,-309.448,50.049
0.669,0.040,0.743,51.453,-309.570,49.194
0.674,0.094,0.874,51.086,-307.556,48.279
0.676,0.139,1.049,47.485,-304.932,47.546
0.682,0.194,1.202,42.297,-300.171,46.509
0.684,0.239,1.370,34.485,-292.175,44.739
0.686,0.281,1.499,23.010,-282.654,42.725
0.677,0.307,1.624,11.475,-269.226,39.856
0.664,0.338,1.701,-4.333,-257.446,37.170
0.653,0.359,1.757,-17.883,-243.347,33.508
0.641,0.376,1.802,-32.410,-233.276,30.029
0.635,0.376,1.830,-41.687,-222.534,25.574
0.633,0.352,1.854,-49.377,-214.417,21.606
0.629,0.324,1.904,-53.223,-204.529,16.785
0.625,0.281,1.894,-53.101,-194.275,12.634
0.611,0.237,1.905,-50.964,-182.922,7.812
0.593,0.164,1.905,-46.143,-167.725,4.089
0.572,0.155,1.900,-40.710,-155.579,0.732
0.565,0.135,1.892,-32.166,-142.090,-1.770
0.560,0.117,1.895,-24.841,-132.751,-3.357
0.561,0.107,1.913,-16.357,-122.620,-3.845
0.625,0.141,1.959,-10.071,-88.013,-0.122
0.564,0.075,1.952,-20.569,-75.562,14.038
0.376,0.118,1.785,-27.832,-83.191,32.654
0.508,0.283,1.844,-33.875,-86.243,15.686
0.639,0.233,1.978,-48.828,-58.716,-21.118
0.591,0.025,2.000,-53.589,-2.075,-31.921
0.464,-0.077,1.797,-49.988,16.418,-1.831
0.353,-0.029,1.578,-47.791,15.259,35.767
0.310,-0.008,1.386,-49.622,-9.644,53.589
0.321,0.023,1.302,-46.631,-36.377,59.021
0.376,0.088,1.347,-40.833,-56.274,54.810
0.396,0.170,1.418,-42.480,-53.894,43.701
0.368,0.181,1.464,-49.683,-36.194,33.569
0.316,0.119,1.447,-55.420,-17.029,24.597
0.283,0.065,1.367,-55.298,3.662,20.752
0.260,0.031,1.260,-52.063,14.893,18.738
0.234,0.022,1.154,-47.913,19.165,16.357
0.218,0.021,1.048,-42.725,18.005,14.404
0.204,0.017,0.987,-38.086,12.390,13.611
0.204,0.011,0.965,-31.799,8.789,13.306
0.215,0.012,0.967,-26.855,6.653,12.085
0.227,0.014,0.979,-23.010,9.399,10.193
0.229,0.010,0.965,-20.874,12.878,8.362
0.220,0.011,0.928,-18.188,16.907,7.385
0.213,0.017,0.897,-16.663,17.700,6.470
0.209,0.017,0.873,-16.785,17.334,5.859
0.242,0.013,0.863,-17.334,16.235,5.371
