aX,aY,aZ,gX,gY,gZ
0.492,0.487,1.709,26.184,-323.486,184.143
0.472,0.497,1.796,25.940,-302.612,180.725
0.397,0.492,1.820,30.151,-289.185,176.697
0.328,0.505,1.825,39.612,-278.015,172.302
0.278,0.547,1.840,47.974,-272.461,165.649
0.264,0.607,1.898,53.284,-264.954,158.142
0.257,0.670,1.938,53.345,-259.338,148.132
0.250,0.704,2.008,52.307,-251.404,141.968
0.257,0.729,2.082,47.974,-243.408,135.864
0.265,0.740,2.179,44.067,-228.455,128.601
0.242,0.745,2.240,38.696,-213.257,122.559
0.195,0.772,2.302,33.691,-194.580,115.295
0.127,0.822,2.368,24.536,-176.880,107.971
0.105,0.860,2.410,15.381,-151.428,98.145
0.064,0.884,2.426,3.052,-131.470,89.172
0.031,0.900,2.416,-5.859,-96.252,77.576
0.015,0.899,2.375,-13.489,-90.759,67.688
0.009,0.896,2.329,-18.433,-76.111,56.274
0.011,0.884,2.263,-24.231,-58.350,47.363
0.004,0.859,2.198,-27.588,-47.546,38.086
-0.019,0.831,2.121,-31.921,-35.400,31.677
-0.037,0.806,2.069,-35.583,-29.175,26.123
-0.046,0.792,2.023,-39.185,-23.682,22.034
-0.049,0.785,2.010,-40.588,-19.165,16.907
-0.041,0.782,2.022,-41.443,-12.390,13.245
-0.032,0.781,2.047,-41.870,-3.967,8.240
-0.012,0.813,2.090,-27.344,53.040,-13.855
0.000,0.829,2.079,-20.569,71.777,-20.630
0.015,0.838,2.059,-14.832,87.769,-30.029
0.029,0.874,2.017,-6.653,107.422,-37.048
0.036,0.851,1.970,-0.244,122.498,-46.265
0.039,0.852,1.900,5.066,138.794,-55.298
0.040,0.851,1.835,8.789,151.367,-65.735
0.042,0.842,1.771,11.353,164.185,-74.158
0.047,0.839,1.727,14.587,174.255,-83.069
0.055,0.838,1.692,30.884,185.303,-93.994
0.067,0.836,1.670,15.930,195.923,-104.065
0.081,0.832,1.648,15.259,209.106,-115.540
0.091,0.811,1.611,14.160,220.886,-125.610
0.101,0.791,1.567,12.024,247.375,-137.085
0.112,0.768,1.491,9.583,245.789,-146.362
0.132,0.740,1.418,6.042,255.981,-156.982
0.152,0.712,1.322,1.099,267.212,-165.039
0.182,0.679,1.244,-2.991,273.560,-173.096
0.209,0.651,1.157,-8.362,279.541,-179.077
0.241,0.615,1.089,-13.855,283.264,-184.265
0.265,0.580,1.011,-19.165,285.217,-187.195
0.282,0.538,0.950,-26.062,286.987,-190.369
0.290,0.506,0.887,-32.227,287.842,-191.956
0.295,0.474,0.843,-38.940,289.368,-193.054
0.299,0.448,0.798,-45.105,290.710,-194.214
0.309,0.420,0.763,-51.758,292.725,-194.458
0.349,0.312,0.583,-65.491,304.321,-193.359
0.350,0.297,0.517,-65.979,307.251,-192.871
0.345,0.287,0.455,-66.040,308.716,-192.566
0.343,0.278,0.384,-64.758,309.509,-192.261
0.336,0.273,0.329,-63.660,308.716,-192.505
0.331,0.266,0.271,-63.843,306.885,-191.284
0.331,0.263,0.226,-64.270,305.542,-189.941
0.328,0.263,0.179,-64.819,303.589,-188.293
0.323,0.259,0.115,-66.711,300.720,-187.256
0.314,0.255,0.052,-67.688,295.959,-186.462
0.304,0.244,-0.031,-67.871,290.894,-186.340
0.289,0.233,-0.097,-67.200,283.813,-186.035
0.273,0.217,-0.179,-64.148,275.940,-186.279
0.262,0.208,-0.237,-60.913,264.587,-187.134
0.262,0.198,-0.289,-55.176,254.211,-187.439
0.269,0.189,-0.319,-50.232,243.286,-186.646
0.310,0.175,-0.344,-45.471,235.168,-184.753
0.290,0.160,-0.364,-41.870,226.746,-181.519
0.276,0.068,-0.479,-18.738,196.350,-166.565
0.272,0.055,-0.519,-11.108,187.866,-162.354
0.271,0.046,-0.547,-5.188,177.368,-156.189
0.277,0.036,-0.584,1.648,167.480,-150.085
0.277,0.030,-0.607,5.676,155.090,-140.930
0.276,0.014,-0.630,11.169,143.250,-135.681
0.251,-0.002,-0.646,15.930,128.601,-129.028
0.229,-0.018,-0.664,20.752,115.051,-123.352
0.208,-0.035,-0.673,23.621,99.121,-117.065
0.201,-0.041,-0.664,27.893,86.548,-111.511
0.194,-0.040,-0.646,32.898,74.158,-105.347
0.190,-0.028,-0.623,38.208,65.186,-100.525
0.191,-0.016,-0.603,41.565,57.312,-95.337
0.189,-0.005,-0.586,46.021,49.622,-91.797
0.191,0.004,-0.582,49.683,44.067,-87.646
0.192,0.009,-0.588,51.697,35.950,-84.167
0.195,0.009,-0.593,52.979,28.809,-79.651
0.198,0.005,-0.602,54.932,20.020,-75.928
0.199,0.010,-0.609,56.641,12.817,-71.228
0.196,0.015,-0.620,58.533,4.150,-67.322
0.194,0.018,-0.630,59.875,-2.991,-63.049
0.199,0.013,-0.655,61.584,-13.000,-59.448
0.198,0.006,-0.675,62.988,-23.010,-54.626
0.219,-0.013,-0.698,74.158,-72.266,-39.001
0.224,-0.012,-0.686,77.271,-85.022,-35.889
0.236,-0.015,-0.685,80.750,-94.910,-32.043
0.245,-0.019,-0.680,84.473,-106.201,-29.053
0.256,-0.032,-0.684,87.646,-116.333,-25.391
0.271,-0.050,-0.691,92.102,-128.357,-21.667
0.287,-0.065,-0.718,96.130,-140.808,-17.029
0.303,-0.078,-0.672,100.891,-152.100,-12.512
0.321,-0.084,-0.659,105.103,-164.246,-6.287
0.333,-0.093,-0.644,109.741,-174.133,15.320
0.351,-0.095,-0.594,113.770,-186.157,7.446
0.363,-0.087,-0.602,119.263,-195.435,13.794
0.379,-0.082,-0.573,122.559,-206.909,20.935
0.388,-0.079,-0.544,126.770,-215.454,26.550
0.398,-0.080,-0.518,130.676,-225.464,33.875
0.411,-0.077,-0.493,135.010,-232.727,39.246
0.424,-0.071,-0.483,139.160,-240.906,46.448
0.509,-0.016,-0.447,154.724,-277.954,77.698
0.536,-0.018,-0.447,157.288,-288.025,85.754
0.562,-0.023,-0.450,159.302,-302.856,96.619
0.579,-0.018,-0.450,161.255,-316.284,106.323
0.596,-0.010,-0.438,161.743,-335.449,117.188
0.616,-0.004,-0.409,159.851,-351.746,126.282
0.636,-0.001,-0.371,159.363,-371.460,137.207
0.687,0.006,-0.334,159.546,-385.986,145.325
0.673,0.032,-0.301,159.668,-400.085,154.907
0.688,0.069,-0.263,158.569,-411.377,162.170
0.700,0.107,-0.227,156.555,-425.232,170.471
0.710,0.147,-0.174,151.306,-439.636,175.842
0.706,0.181,-0.068,144.592,-458.557,179.993
0.696,0.212,0.038,133.118,-474.976,180.725
0.695,0.210,0.180,121.216,-488.464,178.833
0.698,0.213,0.376,105.286,-496.399,175.903
0.700,0.220,1.042,56.458,-466.309,161.133
0.662,0.247,1.201,49.988,-449.280,155.090
0.620,0.308,1.384,42.419,-424.988,148.865
0.581,0.312,1.527,37.231,-399.109,139.160
0.574,0.340,1.671,31.189,-361.511,130.493
0.571,0.367,1.739,27.161,-326.294,119.751
0.561,0.396,1.749,25.391,-284.668,110.962
0.506,0.426,1.711,26.672,-254.028,102.295
0.490,0.455,1.647,27.588,-225.830,91.370
0.446,0.491,1.563,27.649,-209.351,81.238
0.405,0.505,1.496,26.367,-197.266,68.542
0.399,0.532,1.425,23.376,-191.772,55.725
0.362,0.522,1.395,20.325,-189.453,42.969
0.396,0.522,1.402,15.930,-183.777,30.457
0.379,0.473,1.351,15.442,-180.786,18.005
0.386,0.448,1.341,18.921,-178.101,8.972
0.389,0.422,1.350,21.790,-173.401,-2.563
0.375,0.396,1.366,25.452,-166.199,-11.841
0.342,0.365,1.386,28.015,-159.363,-22.644
0.317,0.341,1.401,28.748,-149.841,-31.006
0.298,0.307,1.407,27.954,-142.517,-40.222
0.295,0.276,1.413,26.917,-134.583,-46.326
0.305,0.223,1.419,24.841,-128.906,-51.453
0.316,0.183,1.421,22.156,-122.620,-54.932
0.333,0.137,1.426,18.799,-117.249,-55.481
0.357,0.107,1.426,15.259,-110.718,-53.345
0.347,0.049,1.394,-5.005,-89.233,-29.236
0.330,0.070,1.391,-11.536,-85.999,-22.949
0.314,0.090,1.397,-17.761,-81.360,-19.104
0.297,0.107,1.399,-24.109,-75.928,-15.869
0.280,0.115,1.400,-28.870,-67.932,-13.428
0.254,0.125,1.395,-33.691,-60.181,-10.681
0.234,0.141,1.379,-37.659,-49.683,-8.606
0.217,0.161,1.348,-41.687,-40.955,-6.775
0.204,0.175,1.295,-45.349,-32.104,-5.920
0.194,0.197,1.248,-47.180,-25.208,-6.104
0.183,0.215,1.199,-47.485,-19.653,-6.836
0.176,0.237,1.168,-48.828,-15.564,-8.911
0.164,0.245,1.136,-49.683,-12.817,-11.230
0.160,0.248,1.120,-50.598,-10.681,-14.099
0.157,0.246,1.107,-51.819,-7.507,-16.418
0.162,0.246,1.106,-52.734,-4.028,-19.531
0.171,0.240,1.105,-52.917,1.404,-21.484
0.185,0.230,1.094,-53.284,6.653,-23.193
0.193,0.222,1.061,-52.734,14.038,-24.658
0.201,0.209,1.027,-52.429,18.738,-24.780
0.211,0.200,0.988,-51.575,23.560,-24.841
0.213,0.196,0.949,-49.377,26.245,-24.536
0.210,0.192,0.927,-48.340,28.992,-23.804
0.206,0.184,0.910,-46.570,30.396,-23.376
0.204,0.180,0.901,-46.387,33.325,-22.278
0.205,0.175,0.891,-46.143,36.011,-21.118
0.208,0.170,0.879,-46.326,39.734,-19.592
0.217,0.166,0.854,-45.593,45.288,-18.066
0.220,0.164,0.825,-44.739,51.331,-15.747
0.217,0.163,0.777,-44.006,56.030,-13.794
0.166,0.162,0.586,-37.964,61.890,-7.446
0.149,0.164,0.560,-36.377,60.059,-7.324
0.137,0.166,0.534,-35.034,58.228,-7.080
0.127,0.163,0.518,-34.119,56.763,-7.507
0.121,0.157,0.494,-32.288,55.237,-7.263
0.120,0.156,0.475,-31.311,53.284,-7.019
0.114,0.156,0.463,-30.029,51.392,-6.470
0.108,0.154,0.453,-28.442,49.316,-6.042
0.102,0.152,0.446,-27.283,48.035,-6.042
0.095,0.151,0.443,-25.696,45.410,-6.348
0.087,0.150,0.435,-23.315,44.617,-7.446
0.082,0.150,0.433,-21.790,43.396,-8.118
0.076,0.147,0.427,-21.118,43.030,-9.338
0.075,0.139,0.418,-19.470,41.870,-10.254
0.078,0.132,0.377,-16.846,41.748,-10.193
0.078,0.127,0.388,-14.282,40.466,-10.376
0.078,0.124,0.370,-12.451,39.917,-9.644
0.078,0.122,0.350,-9.644,37.781,-9.338
0.070,0.115,0.343,-8.667,34.912,-8.301
0.069,0.112,0.335,-6.348,33.081,-7.141
0.062,0.115,0.327,-6.042,29.907,-5.493
0.057,0.119,0.332,-6.104,26.489,-4.578
0.055,0.125,0.337,-6.470,23.499,-3.235
0.055,0.129,0.340,-7.263,20.325,-2.441
0.054,0.136,0.345,-9.338,16.418,-2.625
0.051,0.135,0.354,-9.888,13.123,-2.136
0.057,0.138,0.358,-11.230,10.925,-0.916
0.060,0.142,0.368,-11.902,9.460,-0.061
0.061,0.149,0.370,-13.306,6.958,0.854
0.059,0.152,0.372,-13.184,5.554,2.014
0.065,0.164,0.380,-14.038,3.784,2.258
0.064,0.165,0.387,-15.198,3.540,0.793
0.066,0.162,0.389,-14.282,2.441,0.366
0.065,0.159,0.391,-12.512,1.770,-0.366
0.066,0.157,0.394,-10.559,1.709,-0.977
0.072,0.158,0.397,-8.057,2.869,-0.488
0.075,0.159,0.398,-5.310,3.113,-0.732
0.072,0.164,0.396,-3.479,3.662,-1.038
0.074,0.172,0.394,-1.648,3.357,-1.099
0.073,0.178,0.395,0.610,3.357,-2.319
0.070,0.182,0.401,1.343,1.648,-3.601
0.066,0.183,0.408,0.977,1.648,-4.761
0.069,0.178,0.421,0.671,-0.488,-6.042
0.068,0.178,0.426,-0.244,-0.793,-6.836
0.072,0.170,0.438,-1.465,-2.808,-7.202
0.075,0.161,0.448,-2.747,-2.563,-7.751
0.082,0.153,0.456,-3.296,-2.563,-7.751
0.088,0.145,0.457,-4.028,-1.831,-7.690
0.094,0.138,0.458,-3.601,-1.526,-7.202
0.125,0.136,0.457,-2.991,-0.610,-7.019
0.094,0.135,0.454,-2.747,-0.488,-6.714
0.063,0.133,0.452,-1.892,-0.244,-6.348
0.091,0.129,0.453,-0.488,-0.671,-6.409
0.123,0.129,0.455,0.732,0.183,-5.920
0.097,0.127,0.458,0.366,-0.427,-5.737
0.098,0.125,0.465,0.854,-0.427,-5.371
0.103,0.123,0.500,1.587,-0.610,-4.578
0.105,0.121,0.474,1.099,-0.366,-4.211
0.104,0.120,0.479,-0.366,15.198,-2.869
0.107,0.124,0.485,-1.587,-0.671,-1.770
0.108,0.125,0.489,-2.930,-0.732,-0.610
0.104,0.127,0.490,-4.883,-1.099,0.671
0.101,0.136,0.494,-6.897,-1.770,1.343
0.097,0.140,0.495,-9.460,-3.357,1.831
0.094,0.145,0.503,-10.376,-3.174,2.136
0.097,0.147,0.509,-12.207,-3.967,2.380
0.097,0.149,0.513,-13.184,-3.540,2.258
0.100,0.148,0.509,-13.123,-3.174,1.831
0.101,0.147,0.508,-13.123,-2.563,2.319
0.104,0.144,0.504,-13.428,-3.418,1.892
0.100,0.143,0.504,-13.000,-2.380,1.953
0.100,0.147,0.503,-12.817,-2.991,1.831
0.101,0.151,0.501,-12.634,-2.380,1.404
0.098,0.153,0.500,-12.390,-2.747,0.671
0.101,0.150,0.505,-11.414,-2.563,0.305
0.098,0.148,0.505,-10.559,-2.625,-0.061
0.098,0.143,0.508,-9.583,-2.441,-0.671
0.094,0.143,0.511,-8.972,-1.892,-0.854
0.095,0.140,0.512,-7.263,-1.099,-1.282
0.095,0.136,0.516,-7.141,-1.404,-1.587
0.094,0.135,0.518,-6.104,0.061,-1.465
0.096,0.131,0.516,-5.432,0.977,-0.732
0.097,0.133,0.505,-4.517,1.770,-0.305
0.099,0.141,0.492,-3.479,1.892,0.549
0.099,0.147,0.487,-2.930,1.221,1.099
0.091,0.149,0.482,-3.662,-15.381,1.526
0.087,0.155,0.486,-3.540,-1.038,1.160
0.083,0.160,0.488,-4.211,-1.770,0.793
0.080,0.163,0.494,-5.188,-2.563,0.427
0.080,0.157,0.499,-6.348,-2.808,-0.488
0.083,0.151,0.503,-7.568,-2.136,-0.549
0.085,0.144,0.502,-7.812,-1.526,-0.671
0.084,0.141,0.500,-7.568,-0.366,-0.916
0.088,0.136,0.495,-7.080,-0.488,-1.038
0.090,0.130,0.486,-5.493,0.854,-1.038
0.088,0.120,0.468,-1.953,2.197,-0.549
0.092,0.120,0.465,-0.732,2.197,-0.488
0.090,0.119,0.460,15.564,1.770,0.061
0.089,0.120,0.457,0.549,0.916,-0.061
0.087,0.124,0.455,1.038,-0.427,-0.671
0.086,0.127,0.454,0.732,-2.258,-0.244
0.089,0.132,0.459,0.000,-4.089,-0.366
0.097,0.135,0.472,-1.709,-5.310,-0.183
0.096,0.135,0.482,-2.930,-6.531,0.305
0.096,0.138,0.494,-4.028,-6.958,0.488
0.102,0.136,0.504,-4.639,-7.385,0.732
0.103,0.135,0.514,-5.371,-6.958,0.916
0.104,0.134,0.520,-6.958,-5.859,0.977
0.103,0.133,0.529,-7.263,-4.395,0.977
0.107,0.135,0.527,-6.958,-2.380,1.770
0.108,0.133,0.521,-6.653,-0.854,2.380
0.103,0.137,0.508,-5.676,1.099,2.441
0.100,0.145,0.497,-4.517,1.465,2.991
0.090,0.154,0.487,-3.845,1.526,2.808
0.084,0.160,0.480,-3.479,0.061,2.197
0.078,0.170,0.479,-3.601,-0.732,1.831
0.074,0.173,0.482,-4.700,-3.052,0.916
0.073,0.177,0.487,-5.615,-3.784,0.122

1.116,0.298,1.306,57.495,-545.898,334.534
1.116,0.371,1.596,55.237,-517.456,336.914
1.092,0.426,1.784,51.086,-483.948,339.417
1.052,0.543,1.970,49.500,-444.092,340.454
1.001,0.676,2.126,49.438,-407.349,335.754
0.946,0.826,2.311,46.143,-355.957,326.904
0.860,0.988,2.418,40.833,-311.707,308.411
0.766,1.100,2.430,38.940,-261.658,289.001
0.700,1.212,2.397,38.513,-226.501,251.099
0.639,1.277,2.339,37.598,-190.369,238.281
0.563,1.308,2.243,35.461,-166.199,215.027
0.540,1.306,2.129,32.593,-145.264,189.453
0.498,1.288,2.074,30.151,-133.728,168.457
0.448,1.259,2.022,30.151,-124.512,143.250
0.417,1.214,1.992,32.471,-116.577,122.375
0.397,1.153,1.995,36.011,-108.826,99.548
0.382,1.102,2.004,41.992,-98.083,81.909
0.374,1.031,2.029,46.753,-86.853,63.171
0.363,0.991,2.061,50.293,-72.266,48.828
0.354,0.950,2.090,52.612,-59.814,35.278
0.340,0.919,2.108,51.025,-44.800,21.545
0.328,0.886,2.121,47.485,-35.278,11.536
0.328,0.860,2.134,42.725,-24.048,1.465
0.336,0.842,2.158,34.424,-14.587,-5.554
0.354,0.820,2.178,25.879,-5.127,-11.963
0.368,0.801,2.189,15.625,8.606,-15.442
0.384,0.785,2.188,6.836,19.958,-17.151
0.388,0.776,2.172,-3.601,35.583,-16.846
0.385,0.778,2.133,-13.062,48.157,-16.174
0.379,0.786,2.075,-22.827,62.683,-15.015
0.300,0.869,1.910,-41.687,110.901,-20.081
0.278,0.897,1.874,-42.603,122.925,-27.405
0.268,0.913,1.831,-42.969,137.939,-34.973
0.258,0.944,1.797,-43.823,150.269,-45.776
0.253,0.970,1.756,-45.959,166.016,-55.603
0.232,1.000,1.717,-48.401,179.016,-69.031
0.220,1.024,1.661,-50.415,194.092,-81.421
0.202,1.032,1.599,-51.147,205.933,-96.924
0.194,1.038,1.528,-52.368,219.421,-110.901
0.192,1.025,1.469,-51.208,229.065,-129.333
0.190,0.991,1.400,-48.340,241.211,-144.897
0.197,0.952,1.347,-43.579,251.282,-160.706
0.206,0.916,1.298,-38.391,265.198,-177.917
0.219,0.875,1.265,-31.616,275.879,-191.895
0.239,0.843,1.240,-25.024,290.833,-207.886
0.259,0.800,1.195,-18.127,303.284,-219.788
0.296,0.767,1.147,-13.916,317.932,-231.995
0.330,0.731,1.068,-8.789,328.308,-239.258
0.366,0.707,0.997,-6.226,338.745,-245.911
0.390,0.666,0.905,-5.737,344.910,-249.512
0.402,0.637,0.832,-7.874,349.365,-252.075
0.408,0.592,0.749,-11.597,351.074,-252.625
0.401,0.462,0.478,-39.917,345.154,-246.155
0.402,0.436,0.379,-48.157,341.003,-242.310
0.398,0.407,0.322,-55.176,335.815,-239.502
0.386,0.387,0.254,-58.594,330.505,-236.206
0.368,0.364,0.188,-62.134,322.937,-233.276
0.350,0.343,0.145,-64.453,317.383,-231.384
0.333,0.330,0.102,-66.040,310.791,-230.530
0.316,0.312,0.082,-66.650,306.213,-229.980
0.309,0.296,0.061,-67.810,302.979,-230.225
0.295,0.277,0.041,-67.749,299.866,-230.713
0.286,0.259,0.021,-68.237,297.546,-231.079
0.274,0.241,-0.001,-70.129,295.227,-231.018
0.272,0.231,-0.033,-72.998,293.335,-230.591
0.281,0.214,-0.073,-76.599,289.978,-229.187
0.290,0.202,-0.125,-79.773,286.316,-226.318
0.312,0.179,-0.171,-81.726,280.273,-221.680
0.324,0.158,-0.222,-83.191,272.095,-216.553
0.330,0.129,-0.265,-83.740,263.428,-210.083
0.278,0.008,-0.406,-73.853,220.825,-189.575
0.263,-0.019,-0.425,-66.772,210.144,-186.096
0.242,-0.054,-0.438,-62.378,201.965,-179.016
0.249,-0.085,-0.451,-53.711,193.298,-174.927
0.240,-0.129,-0.464,-45.471,186.768,-169.250
0.241,-0.161,-0.487,-34.729,178.528,-163.757
0.235,-0.193,-0.509,-24.475,156.372,-155.518
0.231,-0.248,-0.531,-11.780,163.391,-147.217
0.228,-0.237,-0.552,-0.488,140.747,-136.597
0.228,-0.251,-0.572,11.658,147.339,-127.747
0.223,-0.256,-0.588,21.118,136.963,-116.272
0.224,-0.248,-0.600,32.349,129.028,-106.934
0.224,-0.238,-0.609,39.612,118.347,-95.398
0.220,-0.225,-0.622,47.729,110.046,-86.304
0.210,-0.216,-0.634,53.650,100.037,-75.989
0.201,-0.201,-0.641,60.242,87.769,-67.932
0.186,-0.185,-0.646,65.002,75.989,-59.387
0.167,-0.125,-0.630,69.641,23.193,-35.095
0.166,-0.113,-0.624,66.528,11.108,-30.823
0.166,-0.110,-0.619,63.110,-1.587,-25.330
0.171,-0.111,-0.607,57.739,-16.479,-20.874
0.183,-0.118,-0.564,52.979,-31.006,-14.893
0.196,-0.121,-0.589,48.096,-41.748,-8.728
0.207,-0.123,-0.587,45.105,-54.626,-2.136
0.211,-0.121,-0.590,42.847,-64.209,3.296
0.206,-0.122,-0.596,41.626,-76.477,9.644
0.200,-0.119,-0.612,41.809,-86.426,14.648
0.201,-0.113,-0.626,42.358,-98.511,19.470
0.207,-0.109,-0.638,43.152,-110.413,21.912
0.213,-0.110,-0.647,44.495,-122.253,25.574
0.214,-0.116,-0.648,46.448,-133.667,28.687
0.214,-0.118,-0.647,48.340,-146.423,32.227
0.211,-0.119,-0.643,51.208,-158.203,35.217
0.215,-0.119,-0.644,53.955,-172.302,38.086
0.223,-0.125,-0.638,57.739,-183.350,40.649
0.238,-0.126,-0.632,61.951,-196.106,43.396
0.255,-0.131,-0.623,69.092,-205.811,45.959
0.277,-0.142,-0.617,75.562,-216.858,50.415
0.291,-0.152,-0.611,85.510,-225.891,54.504
0.335,-0.111,-0.536,116.516,-271.912,73.059
0.362,-0.106,-0.495,118.835,-283.508,78.430
0.393,-0.110,-0.451,121.765,-291.565,84.290
0.425,-0.115,-0.432,123.962,-299.805,92.773
0.453,-0.120,-0.419,126.953,-307.068,101.074
0.475,-0.120,-0.413,129.150,-315.857,112.000
0.500,-0.115,-0.409,131.592,-323.669,121.887
0.519,-0.110,-0.403,133.667,-333.008,134.827
0.536,-0.094,-0.398,135.010,-342.468,144.714
0.542,-0.069,-0.394,136.658,-354.614,154.175
0.546,-0.036,-0.384,138.611,-366.333,160.583
0.559,-0.011,-0.364,138.245,-381.348,167.480
0.582,0.017,-0.333,138.489,-392.517,172.119
0.609,0.041,-0.296,138.184,-406.067,177.612
0.631,0.063,-0.244,135.193,-416.931,182.190
0.709,0.152,0.063,101.807,-462.036,195.312
0.740,0.175,0.186,88.013,-471.252,196.716
0.777,0.192,0.272,68.726,-476.562,197.937
0.821,0.213,0.384,50.903,-480.774,200.317
0.851,0.226,0.517,27.710,-481.506,202.332
0.859,0.240,0.630,8.301,-481.262,204.834
0.865,0.244,0.774,-14.587,-477.478,205.444
0.883,0.263,0.894,-32.471,-469.971,204.956
0.884,0.256,1.040,-49.744,-456.848,205.505
0.918,0.269,1.131,-65.552,-440.002,203.613
0.897,0.250,1.217,-73.242,-422.363,202.515
0.871,0.255,1.320,-78.369,-405.518,202.515
0.841,0.274,1.457,-80.139,-381.104,200.317
0.796,0.315,1.566,-81.360,-357.239,195.740
0.751,0.371,1.686,-81.177,-325.684,186.523
0.718,0.450,1.755,-78.674,-298.462,176.086
0.686,0.524,1.796,-74.402,-265.442,159.973
0.625,0.603,1.810,-69.763,-240.112,143.982
0.623,0.653,1.797,-64.331,-212.952,122.498
0.563,0.683,1.758,-58.716,-194.214,102.966
0.522,0.653,1.633,-42.664,-151.917,3.052
0.522,0.633,1.656,-40.894,-146.667,-1.343
0.533,0.589,1.707,-41.687,-140.930,-17.517
0.543,0.540,1.752,-43.579,-132.446,-33.386
0.554,0.476,1.789,-47.852,-122.314,-44.495
0.567,0.426,1.842,-53.406,-108.948,-54.260
0.558,0.355,1.823,-60.852,-96.863,-59.570
0.540,0.298,1.815,-68.115,-83.923,-62.988
0.519,0.234,1.801,-78.430,-73.669,-63.477
0.492,0.189,1.776,-88.318,-62.805,-62.683
0.469,0.136,1.739,-100.891,-53.589,-60.303
0.436,0.089,1.703,-109.985,-42.908,-56.946
0.417,0.038,1.653,-120.422,-33.997,-52.917
0.388,0.006,1.566,-127.197,-22.949,-47.485
0.363,-0.034,1.507,-132.629,-14.648,-42.297
0.333,-0.062,1.384,-135.498,-5.493,-35.950
0.303,-0.088,1.300,-135.864,-0.122,-30.029
0.259,-0.100,1.207,-133.240,3.479,-24.353
0.191,-0.105,1.121,-129.028,4.150,-19.897
0.173,-0.104,1.059,-124.268,2.930,-14.954
0.156,-0.089,1.017,-116.943,2.747,-13.123
0.127,-0.079,0.981,-111.694,2.014,-10.986
0.068,-0.047,0.853,-73.303,12.085,-18.311
0.054,-0.022,0.823,-62.073,9.216,-19.165
0.048,-0.005,0.808,-54.810,5.798,-20.691
0.052,0.019,0.809,-47.302,2.991,-23.315
0.060,0.037,0.819,-42.358,2.563,-28.137
0.071,0.044,0.831,-37.048,4.700,-32.471
0.082,0.033,0.835,-31.189,10.071,-37.231
0.086,0.014,0.818,-25.208,14.709,-39.673
0.085,-0.000,0.756,-19.104,18.799,-40.710
0.084,-0.010,0.743,-11.658,21.057,-40.955
0.082,-0.009,0.715,-7.019,20.935,-40.466
0.083,-0.003,0.695,-1.221,20.508,-40.222
0.088,-0.001,0.690,1.953,19.836,-40.466
0.088,0.009,0.687,4.578,19.409,-40.222
0.097,0.013,0.684,5.310,19.958,-39.734
0.105,0.014,0.678,5.371,20.874,-38.696
0.112,0.014,0.672,6.104,21.851,-37.964
0.120,0.012,0.661,6.592,22.278,-36.316
0.120,0.008,0.654,7.019,22.583,-34.912
0.126,0.007,0.647,7.874,24.170,-32.959
0.134,0.003,0.641,7.385,24.536,-30.884
0.141,-0.001,0.629,6.470,26.123,-28.137
0.148,-0.004,0.609,7.202,26.367,-25.452
0.153,-0.005,0.563,8.606,27.344,-21.790
0.154,-0.005,0.574,10.132,26.611,-19.226
0.149,0.000,0.566,11.536,26.428,-15.503
0.144,0.006,0.563,12.512,25.391,-12.939
0.138,0.013,0.571,12.817,25.391,-10.193
0.139,0.018,0.578,12.756,24.170,-8.179
0.139,0.029,0.588,12.085,25.696,-5.127
0.137,0.038,0.589,11.108,26.245,-2.991
0.136,0.045,0.588,10.193,27.161,-0.671
0.131,0.057,0.577,9.338,27.649,0.732
0.124,0.065,0.568,8.667,28.564,2.502
0.114,0.074,0.559,7.385,28.442,3.601
0.107,0.087,0.548,6.287,28.137,4.761
0.100,0.099,0.541,5.005,27.283,5.432
0.094,0.109,0.533,2.686,25.940,5.188
0.088,0.119,0.531,2.869,25.635,5.554
0.084,0.120,0.527,0.488,23.987,5.493
0.094,0.129,0.534,-1.282,24.780,6.409
0.087,0.141,0.514,-2.563,23.376,5.554
0.080,0.146,0.500,-2.747,20.813,4.517
0.086,0.152,0.501,-2.197,17.761,3.052
0.084,0.157,0.492,-3.723,17.212,1.953
0.083,0.159,0.489,-5.188,17.883,0.244
0.081,0.126,0.486,-6.592,19.226,-1.221
0.083,0.156,0.482,-6.714,20.325,-2.686
0.083,0.187,0.474,-7.019,22.400,-4.761
0.078,0.151,0.463,-5.676,21.973,-6.775
0.079,0.153,0.450,-4.822,21.973,-8.362
0.080,0.150,0.439,-3.174,20.203,-9.277
0.088,0.156,0.431,-2.136,18.250,-9.644
0.098,0.159,0.429,-1.343,16.602,-10.315
0.099,0.160,0.428,-2.502,14.465,-10.559
0.101,0.160,0.434,-4.395,13.489,-10.803
0.101,0.158,0.439,-5.920,11.414,-11.230
0.104,0.149,0.449,-8.606,9.888,-11.597
0.100,0.145,0.456,-9.949,8.972,-11.780
0.101,0.138,0.465,-11.047,8.423,-12.207
0.101,0.134,0.472,-12.146,9.277,-11.780
0.103,0.131,0.476,-12.512,10.254,-11.536
0.105,0.132,0.473,-12.756,11.719,-11.719
0.117,0.115,0.447,-12.634,11.292,-12.695
0.118,0.106,0.441,-12.573,9.888,-12.634
0.123,0.097,0.438,-11.841,9.460,-12.329
0.122,0.092,0.438,-11.475,8.301,-11.719
0.126,0.090,0.444,-10.132,7.568,-10.742
0.128,0.092,0.450,-8.972,6.714,-10.681
0.130,0.092,0.460,-8.301,6.897,-10.376
0.131,0.094,0.470,-7.385,6.104,-10.132
0.135,0.095,0.475,-7.629,6.897,-9.888
0.134,0.094,0.479,-7.324,6.714,-9.399
0.139,0.092,0.477,-7.080,7.202,-8.789
0.137,0.093,0.475,-7.507,7.446,-8.423
0.138,0.095,0.473,-7.324,6.653,-7.629
0.136,0.096,0.477,-6.531,6.226,-7.385
0.133,0.099,0.484,-6.775,5.920,-7.446
0.130,0.100,0.492,-7.202,5.249,-7.446
0.130,0.104,0.498,-7.568,4.700,-7.996
0.130,0.104,0.502,-7.141,5.676,-8.301
0.130,0.103,0.504,-6.897,5.798,-8.728
0.127,0.103,0.504,-7.019,6.348,-9.277
0.127,0.103,0.494,-7.019,6.409,-9.827
0.126,0.105,0.487,-7.324,5.310,-10.376
0.125,0.106,0.479,-7.812,4.028,-10.376
0.127,0.108,0.477,-8.667,3.052,-11.047
0.127,0.106,0.477,-8.728,1.221,-11.230
0.131,0.101,0.481,-8.728,0.916,-11.108
0.131,0.097,0.487,-7.690,-0.061,-11.169
0.133,0.091,0.497,-7.751,0.854,-11.108
0.130,0.089,0.503,-6.592,1.587,-10.925
0.132,0.087,0.500,-5.554,2.319,-11.108
0.130,0.086,0.496,-5.310,3.052,-10.986
0.130,0.087,0.491,-4.150,3.906,-10.742
0.129,0.092,0.485,-2.808,4.028,-10.681
0.130,0.094,0.481,-2.930,3.540,-10.376
0.132,0.091,0.481,-3.174,2.380,-9.338
0.136,0.088,0.484,-3.540,1.526,-8.301
0.140,0.084,0.487,-4.089,0.366,-7.080
0.135,0.085,0.493,-4.578,0.427,-6.348
0.135,0.082,0.495,-5.554,0.610,-4.883
0.130,0.081,0.500,-5.432,1.587,-4.395
0.125,0.078,0.500,-5.432,2.014,-3.906
0.122,0.079,0.504,-5.249,3.784,-3.540
0.120,0.079,0.503,-3.235,3.540,-3.540
0.121,0.078,0.500,-2.686,5.981,-3.479
0.126,0.074,0.495,-2.319,6.409,-2.869
0.124,0.076,0.482,-1.526,7.507,-2.441
0.120,0.077,0.472,-0.732,7.751,-2.136
0.118,0.081,0.462,-0.671,5.920,-2.197
0.115,0.083,0.458,-0.549,4.822,-2.441
0.110,0.081,0.458,-0.732,2.625,-2.258
0.108,0.079,0.463,-1.160,1.587,-2.869
0.109,0.076,0.438,-1.648,0.061,-3.174
0.112,0.074,0.473,-1.648,-0.122,-3.235
0.115,0.072,0.479,-1.526,0.488,-3.113
0.117,0.073,0.484,-1.099,0.671,-2.869
0.115,0.077,0.484,-0.244,1.282,-2.625
0.114,0.080,0.487,0.732,2.075,-2.930
0.114,0.086,0.491,0.549,2.686,-3.174
0.114,0.089,0.495,0.671,3.540,-3.296
0.109,0.092,0.495,0.610,3.601,-3.845
0.111,0.093,0.494,0.732,3.662,-4.089
0.110,0.095,0.488,0.671,3.601,-4.517
0.112,0.094,0.486,15.259,2.502,-5.066
0.111,0.093,0.482,-0.854,2.625,-5.310
0.111,0.092,0.477,-0.549,1.099,-5.554
0.112,0.091,0.479,-0.793,0.366,-5.920
0.117,0.089,0.479,-0.488,-0.793,-5.859
0.116,0.087,0.481,-0.427,-1.526,-6.042
0.118,0.085,0.485,-0.305,-1.831,-6.226
0.118,0.084,0.496,-0.122,-2.319,-6.348
0.115,0.083,0.505,0.122,-2.075,-6.897

1.072,0.133,1.647,58.105,-502.502,334.656
1.086,0.259,1.873,69.336,-461.365,332.825
1.104,0.405,2.035,85.754,-417.236,325.928
1.082,0.540,2.179,99.548,-356.323,318.970
1.083,0.670,2.202,116.028,-304.199,309.570
1.000,0.781,2.174,130.798,-251.404,297.180
0.882,0.912,2.116,144.470,-214.050,284.790
0.816,1.003,2.035,152.405,-174.622,264.832
0.727,1.066,1.976,159.485,-149.841,245.789
0.634,1.126,1.901,165.344,-131.836,220.947
0.559,1.143,1.808,171.265,-122.559,199.097
0.506,1.141,1.771,176.270,-121.033,174.622
0.484,1.116,1.793,178.955,-120.361,155.945
0.463,1.077,1.834,179.077,-116.089,135.315
0.438,1.046,1.874,178.589,-106.995,119.934
0.400,1.027,1.900,176.697,-97.900,106.079
0.367,1.026,1.929,173.828,-85.754,90.942
0.347,1.029,1.950,168.152,-76.416,80.261
0.337,1.039,1.983,160.889,-66.040,68.298
0.337,1.048,2.030,147.827,-56.946,59.265
0.346,1.053,2.074,133.240,-31.616,49.866
0.349,1.049,2.122,112.244,-34.302,43.884
0.337,1.009,2.068,29.663,19.897,33.447
0.348,1.016,2.023,13.184,33.752,35.706
0.339,1.034,1.930,-0.305,48.828,34.546
0.300,1.059,1.839,-6.958,57.861,30.457
0.267,1.084,1.740,-13.123,64.880,26.123
0.242,1.118,1.687,-16.418,70.679,20.020
0.224,1.153,1.658,-19.897,77.881,14.587
0.206,1.199,1.655,-23.743,85.693,7.629
0.184,1.233,1.658,-26.184,97.229,-3.052
0.128,1.264,1.659,-29.419,108.887,-29.236
0.125,1.285,1.644,-32.043,123.596,-28.564
0.108,1.295,1.609,-35.156,136.902,-42.419
0.103,1.286,1.572,-37.842,152.527,-59.692
0.109,1.269,1.525,-40.161,165.649,-74.158
0.123,1.245,1.446,-42.358,181.091,-91.370
0.140,1.215,1.415,-43.945,192.932,-104.675
0.156,1.180,1.360,-45.471,204.590,-119.873
0.170,1.148,1.305,-47.180,217.102,-131.653
0.177,1.102,1.251,-47.180,226.746,-145.020
0.182,1.037,1.186,-46.387,236.633,-156.494
0.185,1.021,1.146,-46.204,242.676,-170.654
0.189,0.980,1.111,-44.556,250.916,-182.251
0.194,0.931,1.085,-44.006,257.751,-195.862
0.206,0.895,1.056,-43.579,267.090,-206.604
0.226,0.851,1.036,-43.213,275.330,-217.957
0.243,0.815,1.009,-43.640,286.621,-226.257
0.269,0.781,0.981,-46.326,296.204,-234.741
0.338,0.667,0.770,-61.890,330.200,-249.329
0.348,0.643,0.703,-66.650,335.266,-251.953
0.357,0.613,0.641,-74.036,337.708,-254.700
0.362,0.589,0.553,-80.505,338.867,-256.714
0.363,0.562,0.473,-86.487,337.280,-258.606
0.365,0.536,0.384,-91.370,332.092,-260.864
0.406,0.513,0.325,-95.276,326.111,-261.780
0.383,0.490,0.271,-96.558,317.383,-262.085
0.377,0.464,0.223,-96.680,309.998,-260.925
0.374,0.437,0.194,-95.581,301.270,-258.606
0.372,0.402,0.166,-94.849,295.471,-255.066
0.362,0.375,0.149,-94.116,288.330,-249.268
0.361,0.346,0.129,-91.675,284.424,-243.103
0.351,0.330,0.117,-89.661,280.701,-235.840
0.329,0.318,0.093,-86.853,278.625,-230.774
0.304,0.312,0.064,-84.412,275.513,-226.440
0.281,0.310,0.027,-81.299,272.644,-224.609
0.260,0.317,-0.003,-80.078,269.714,-223.755
0.250,0.326,-0.037,-80.444,266.724,-223.450
0.259,0.250,-0.187,-84.778,247.192,-222.351
0.264,0.256,-0.213,-84.656,240.601,-221.313
0.274,0.234,-0.243,-84.106,233.398,-219.910
0.287,0.207,-0.260,-83.496,227.234,-217.529
0.299,0.187,-0.283,-82.642,220.947,-214.233
0.308,0.161,-0.309,-80.688,216.187,-208.984
0.316,0.138,-0.342,-77.820,210.510,-204.468
0.326,0.115,-0.371,-74.707,206.299,-199.158
0.326,0.087,-0.412,-68.848,201.050,-194.214
0.329,0.044,-0.447,-63.477,195.801,-187.866
0.323,0.005,-0.486,-60.059,189.941,-177.856
0.345,-0.037,-0.525,-56.213,183.228,-168.396
0.328,-0.081,-0.562,-48.767,175.354,-161.316
0.313,-0.131,-0.605,-42.358,166.260,-151.917
0.294,-0.167,-0.660,-34.424,156.067,-143.311
0.274,-0.184,-0.704,-27.100,143.799,-132.568
0.232,-0.209,-0.859,14.648,87.219,-95.947
0.221,-0.205,-0.873,27.649,73.730,-88.135
0.208,-0.201,-0.885,37.048,56.885,-79.468
0.195,-0.186,-0.896,45.776,42.114,-72.876
0.183,-0.171,-0.900,51.819,23.437,-65.857
0.178,-0.149,-0.903,56.458,7.385,-60.547
0.179,-0.124,-0.893,58.960,-12.939,-54.688
0.195,-0.097,-0.869,59.570,-29.785,-49.805
0.216,-0.072,-0.840,57.922,-49.133,-43.579
0.236,-0.052,-0.795,55.298,-63.660,-38.513
0.244,-0.043,-0.765,53.284,-80.078,-32.043
0.248,-0.037,-0.744,49.927,-92.468,-26.672
0.252,-0.036,-0.731,48.645,-107.727,-21.362
0.257,-0.035,-0.735,49.072,-118.835,-17.334
0.257,-0.036,-0.749,50.415,-133.545,-12.512
0.261,-0.034,-0.760,54.993,-145.386,-8.240
0.273,-0.036,-0.754,59.143,-160.889,-5.188
0.289,-0.034,-0.746,64.636,-172.791,-1.465
0.302,-0.037,-0.741,71.228,-186.279,0.671
0.310,-0.040,-0.740,81.116,-197.510,3.723
0.320,-0.036,-0.740,90.515,-210.693,6.470
0.333,-0.018,-0.733,102.539,-221.863,10.498
0.415,0.004,-0.626,135.254,-269.165,27.527
0.438,0.002,-0.588,141.296,-280.823,32.043
0.459,-0.005,-0.551,146.973,-288.940,38.452
0.470,-0.009,-0.516,153.076,-298.279,43.701
0.481,-0.014,-0.497,159.363,-304.199,50.110
0.488,-0.013,-0.475,165.649,-310.913,55.908
0.502,-0.006,-0.464,174.011,-315.979,61.890
0.510,0.009,-0.450,181.519,-321.533,67.139
0.525,0.026,-0.441,189.331,-327.087,72.266
0.543,0.044,-0.425,195.007,-333.923,77.454
0.570,0.065,-0.411,199.463,-340.942,84.961
0.596,0.084,-0.396,200.378,-351.257,91.125
0.625,0.108,-0.385,200.989,-361.389,98.755
0.654,0.126,-0.365,200.806,-375.610,108.948
0.688,0.147,-0.332,196.472,-386.902,118.530
0.729,0.180,-0.255,190.613,-400.513,129.211
0.780,0.220,-0.214,180.786,-411.194,137.268
0.755,0.251,-0.151,169.128,-424.805,145.386
0.754,0.285,0.111,91.125,-477.905,161.255
0.762,0.286,0.178,71.716,-489.319,162.170
0.772,0.280,0.319,56.580,-500.610,161.499
0.779,0.271,0.459,41.077,-502.869,160.706
0.769,0.253,0.599,29.358,-502.258,159.363
0.766,0.241,0.768,18.860,-495.667,157.532
0.760,0.231,0.900,11.536,-468.933,154.602
0.762,0.228,1.048,3.723,-464.844,152.527
0.764,0.238,1.153,-1.099,-443.054,149.902
0.762,0.250,1.255,-2.197,-412.659,148.376
0.778,0.283,1.323,-1.465,-383.972,146.667
0.777,0.334,1.392,1.282,-350.464,144.287
0.762,0.416,1.447,2.197,-322.266,125.671
0.754,0.499,1.445,1.465,-291.443,134.033
0.708,0.581,1.445,-1.892,-273.926,110.291
0.675,0.640,1.445,-9.216,-259.766,113.953
0.653,0.675,1.456,-21.423,-249.878,103.149
0.635,0.682,1.463,-30.396,-240.295,88.074
0.614,0.673,1.475,-39.307,-235.779,74.646
0.586,0.656,1.492,-42.969,-232.727,58.044
0.564,0.631,1.544,-44.861,-228.882,44.617
0.550,0.611,1.607,-45.227,-223.022,29.053
0.539,0.589,1.685,-44.739,-212.036,15.930
0.529,0.553,1.736,-43.640,-199.524,0.916
0.530,0.511,1.783,-41.199,-183.350,-10.559
0.493,0.331,1.798,-38.330,-125.916,-45.288
0.486,0.280,1.783,-41.809,-117.004,-48.950
0.482,0.240,1.771,-47.607,-109.375,-50.415
0.474,0.196,1.770,-53.833,-102.905,-49.316
0.469,0.129,1.766,-63.477,-95.947,-47.058
0.468,0.127,1.756,-70.923,-87.341,-42.053
0.464,0.104,1.727,-80.322,-77.393,-37.170
0.446,0.093,1.688,-87.158,-68.115,-31.799
0.416,0.092,1.627,-92.346,-58.350,-27.771
0.368,0.089,1.577,-96.497,-51.697,-23.254
0.320,0.089,1.523,-99.854,-44.922,-20.935
0.273,0.091,1.481,-101.563,-39.246,-19.409
0.236,0.091,1.434,-103.699,-31.738,-19.470
0.203,0.093,1.379,-103.943,-24.719,-21.179
0.180,0.086,1.311,-101.929,-16.602,-22.644
0.155,0.082,1.247,-98.572,-9.766,-24.536
0.141,0.078,1.167,-92.651,-3.296,-27.039
0.123,0.070,1.107,-86.792,2.625,-29.663
0.113,0.031,1.032,-79.346,6.653,-31.982
0.102,0.051,0.976,-73.242,9.705,-35.156
0.096,0.035,0.912,-64.636,10.681,-37.659
0.085,0.018,0.869,-57.190,11.047,-40.161
0.082,0.005,0.837,-47.607,10.681,-41.687
0.082,-0.009,0.817,-41.382,9.094,-42.786
0.085,-0.019,0.807,-34.546,8.362,-43.701
0.099,-0.029,0.803,-28.198,7.507,-43.762
0.148,-0.057,0.793,-9.277,14.648,-35.156
0.155,-0.055,0.780,-5.798,18.127,-31.860
0.157,-0.049,0.765,-4.150,20.691,-28.198
0.157,-0.041,0.749,-2.686,23.071,-24.780
0.160,-0.031,0.730,-2.747,24.048,-21.118
0.162,-0.024,0.708,-4.272,25.269,-18.127
0.166,-0.017,0.686,-5.859,25.452,-14.648
0.171,-0.016,0.657,-7.141,25.513,-11.536
0.179,-0.021,0.623,-8.911,24.536,-6.897
0.182,-0.025,0.580,-8.423,24.475,-2.869
0.180,-0.024,0.549,-7.812,23.132,1.343
0.173,-0.019,0.518,-6.775,21.912,4.883
0.162,-0.008,0.505,-4.639,19.409,8.240
0.146,0.009,0.500,-2.625,16.541,10.559
0.135,0.030,0.505,-1.343,15.137,12.024
0.127,0.048,0.510,-0.671,13.611,12.878
0.128,0.065,0.514,-0.549,13.550,13.184
0.128,0.076,0.517,-0.488,13.123,12.756
0.130,0.081,0.512,0.427,13.245,13.245
0.135,0.090,0.504,1.770,13.672,14.404
0.133,0.099,0.493,3.235,15.198,14.771
0.131,0.111,0.483,4.028,15.808,15.503
0.127,0.123,0.473,6.042,16.785,15.747
0.094,0.135,0.462,8.118,17.090,0.000
0.120,0.148,0.456,8.911,17.395,14.954
0.116,0.161,0.451,9.583,17.639,14.160
0.114,0.173,0.453,9.705,16.724,13.184
0.112,0.177,0.454,9.277,16.357,12.085
0.110,0.183,0.456,8.362,15.930,10.498
0.110,0.186,0.459,5.798,15.076,9.338
0.112,0.185,0.462,3.601,14.465,7.935
0.109,0.181,0.461,2.136,14.160,6.897
0.114,0.178,0.459,0.305,13.794,5.676
0.111,0.177,0.453,-0.793,14.099,5.920
0.115,0.174,0.447,-2.563,13.489,4.883
0.116,0.170,0.439,-3.906,14.038,4.211
0.117,0.171,0.429,-4.272,13.550,3.601
0.119,0.169,0.414,-3.845,13.123,2.686
0.122,0.170,0.401,-3.540,12.390,2.197
0.121,0.173,0.396,-2.380,10.193,1.221
0.120,0.174,0.401,-1.587,8.484,-0.305
0.121,0.175,0.411,-1.648,6.409,-1.465
0.120,0.174,0.426,-2.197,5.432,-2.563
0.123,0.170,0.441,-2.869,4.272,-3.357
0.130,0.162,0.456,-4.395,4.395,-4.761
0.133,0.157,0.463,-5.188,4.639,-4.822
0.137,0.146,0.467,-5.310,5.920,-5.127
0.145,0.143,0.456,-5.005,6.653,-4.761
0.146,0.141,0.449,-4.578,7.385,-3.662
0.145,0.139,0.437,-3.967,7.019,-3.357
0.143,0.138,0.427,-3.357,7.019,-2.747
0.138,0.140,0.418,-2.625,5.859,-2.563
0.134,0.143,0.417,-2.380,4.639,-2.502
0.132,0.146,0.426,-1.465,2.014,-2.502
0.131,0.147,0.431,-2.136,1.160,-2.136
0.131,0.148,0.445,-3.174,-0.122,-2.075
0.130,0.150,0.453,-3.906,0.000,-2.319
0.129,0.154,0.459,-4.639,-0.061,-2.563
0.129,0.153,0.457,-6.165,0.488,-2.686
0.130,0.153,0.457,-5.493,1.038,-3.113
0.126,0.152,0.453,-5.615,1.587,-3.296
0.125,0.155,0.448,-6.348,2.319,-3.662
0.123,0.157,0.445,-6.104,2.197,-4.272
0.123,0.158,0.442,-5.615,2.075,-5.005
0.122,0.159,0.443,-5.615,1.099,-5.859
0.125,0.158,0.446,-5.737,0.854,-6.958
0.123,0.155,0.457,-5.798,0.427,-7.690
0.123,0.155,0.464,-5.920,0.061,-8.301
0.126,0.151,0.469,-5.920,0.732,-8.667
0.133,0.149,0.471,-6.653,0.977,-8.972
0.139,0.146,0.464,-6.714,1.526,-8.606
0.146,0.139,0.454,-5.981,1.465,-8.545
0.155,0.135,0.437,-5.249,1.221,-7.874
0.155,0.132,0.428,-3.235,0.854,-6.897
0.155,0.135,0.426,-1.770,-0.488,-5.920
0.152,0.132,0.430,0.122,-2.014,-4.700
0.150,0.134,0.447,1.282,-3.296,-4.089
0.147,0.139,0.466,1.465,-4.578,-3.967
0.144,0.145,0.487,1.770,-4.761,-3.967
0.144,0.146,0.503,1.587,-3.601,-3.784
0.146,0.146,0.517,0.122,-3.357,-3.967
0.145,0.149,0.523,-0.244,-2.014,-4.517
0.146,0.147,0.524,-0.732,-0.183,-4.395
0.150,0.150,0.522,-1.282,1.343,-4.456
0.153,0.150,0.519,-2.014,2.136,-4.639
0.155,0.152,0.509,-2.380,3.052,-4.211
0.154,0.152,0.503,-3.052,2.991,-3.784
0.153,0.154,0.496,-3.479,3.906,-4.089
0.150,0.153,0.493,-4.211,3.052,-3.601
0.147,0.149,0.488,-4.761,2.747,-3.723
0.143,0.148,0.488,-4.456,2.075,-3.906
0.143,0.143,0.487,-4.211,1.953,-4.089
0.146,0.140,0.489,-3.967,2.441,-4.272
0.146,0.136,0.490,-2.258,2.136,-4.822
0.147,0.133,0.483,-1.526,3.357,-4.578
0.150,0.134,0.486,0.061,3.357,-4.578
0.147,0.131,0.484,0.916,3.723,-4.517
0.147,0.129,0.480,1.099,3.052,-4.517
0.145,0.127,0.479,2.747,3.235,-4.089
0.147,0.127,0.482,2.136,2.441,-3.662
0.149,0.127,0.483,2.808,2.502,-3.052
0.146,0.131,0.482,3.479,3.052,-2.380
0.146,0.135,0.486,3.357,3.235,-1.282
0.142,0.136,0.487,1.587,2.319,-1.099
0.139,0.137,0.485,0.793,1.892,-0.488
0.137,0.139,0.487,0.183,1.465,-0.366
0.133,0.144,0.486,-0.549,0.671,-0.427
0.130,0.142,0.491,-0.671,0.854,-0.366
0.133,0.144,0.494,-1.404,0.244,-0.671
0.133,0.146,0.495,-1.282,0.427,-1.221
0.132,0.146,0.496,-0.671,1.282,-1.404
0.135,0.148,0.497,-0.488,1.709,-1.587
0.136,0.148,0.496,0.610,1.648,-2.075
0.136,0.147,0.495,1.038,1.831,-2.502
0.140,0.148,0.496,0.671,2.441,-2.625
0.139,0.148,0.492,1.709,2.563,-2.625
0.141,0.149,0.495,2.563,2.930,-2.502
0.139,0.153,0.493,2.136,2.441,-2.319
0.140,0.156,0.496,2.869,2.380,-2.625
0.136,0.154,0.497,1.404,2.075,-2.869
0.135,0.155,0.495,0.793,2.380,-2.808
0.136,0.150,0.493,0.488,2.075,-2.991
0.136,0.149,0.489,0.793,2.563,-2.808
0.137,0.150,0.485,0.244,1.648,-2.930
0.136,0.152,0.485,0.305,1.770,-2.563

1.595,-0.155,1.147,56.458,-709.045,291.199
1.630,-0.181,1.729,67.017,-683.716,296.326
1.587,-0.117,2.255,72.083,-645.325,302.917
1.517,-0.027,2.781,70.801,-578.369,308.350
1.422,0.122,3.108,69.275,-508.118,313.049
1.354,0.284,3.367,63.232,-413.818,309.814
1.256,0.489,3.461,54.993,-330.261,299.622
1.155,0.622,3.365,50.293,-238.647,281.799
1.015,0.755,3.154,44.128,-172.791,262.512
0.877,0.779,2.740,41.748,-119.446,237.793
0.773,0.770,2.407,41.809,-96.191,218.384
0.713,0.715,2.112,43.213,-81.482,197.693
0.685,0.629,1.924,50.659,-77.576,182.495
0.639,0.606,1.809,60.425,-80.261,167.297
0.577,0.571,1.771,75.500,-89.844,156.799
0.508,0.536,1.813,87.646,-96.191,146.362
0.462,0.519,1.926,99.182,-96.802,138.855
0.418,0.538,2.033,107.117,-89.600,129.456
0.381,0.582,2.126,113.098,-74.402,120.422
0.317,0.635,2.170,120.361,-59.387,110.901
0.319,0.685,2.194,122.681,-41.748,99.548
0.305,0.732,2.215,119.507,-28.320,90.637
0.301,0.766,2.208,112.610,-14.160,81.848
0.304,0.796,2.183,101.013,-3.296,76.782
0.310,0.820,2.158,88.135,6.287,72.571
0.302,0.851,2.136,74.219,16.357,69.397
0.285,0.905,2.142,62.195,26.062,65.613
0.200,1.108,2.093,15.381,81.116,27.222
0.199,1.111,2.005,8.911,95.947,16.052
0.199,1.100,1.926,6.836,107.727,3.540
0.199,1.093,1.842,5.432,120.300,-6.592
0.194,1.099,1.796,4.395,131.653,-16.968
0.187,1.112,1.767,4.822,143.738,-29.846
0.170,1.124,1.736,3.723,155.518,-41.931
0.158,1.123,1.702,2.930,168.457,-58.167
0.152,1.111,1.659,3.479,180.298,-71.777
0.156,1.086,1.620,2.197,190.308,-89.355
0.172,1.061,1.573,1.892,203.735,-103.821
0.187,1.024,1.525,1.465,213.684,-120.483
0.207,0.991,1.467,0.793,225.708,-133.484
0.228,0.950,1.420,-0.427,234.924,-148.376
0.243,0.908,1.360,-15.137,246.216,-159.668
0.261,0.859,1.319,0.061,254.822,-185.486
0.279,0.818,1.278,1.221,266.785,-181.763
0.296,0.779,1.248,2.502,277.649,-190.430
0.305,0.751,1.210,4.456,291.260,-200.867
0.311,0.721,1.151,6.348,303.406,-209.961
0.320,0.698,1.069,7.751,316.895,-220.581
0.328,0.675,1.038,9.583,328.674,-229.980
0.332,0.650,0.970,10.742,339.355,-240.662
0.347,0.633,0.893,11.719,349.670,-248.718
0.371,0.614,0.837,11.169,357.178,-257.507
0.393,0.595,0.767,10.010,366.577,-263.428
0.419,0.561,0.707,7.751,373.718,-268.188
0.438,0.536,0.646,4.456,381.348,-271.301
0.445,0.504,0.599,-0.732,386.108,-274.170
0.446,0.479,0.544,-7.141,390.076,-277.039
0.451,0.456,0.468,-14.587,392.700,-279.419
0.456,0.436,0.399,-20.447,391.907,-283.142
0.507,0.337,0.127,-45.044,371.521,-292.786
0.511,0.310,0.082,-49.255,365.906,-293.579
0.516,0.290,0.000,-53.223,357.239,-293.335
0.524,0.262,-0.012,-58.899,350.098,-290.955
0.533,0.235,-0.041,-64.453,341.431,-287.109
0.536,0.200,-0.075,-72.083,335.083,-265.747
0.540,0.171,-0.103,-79.895,327.148,-272.644
0.528,0.137,-0.149,-90.576,320.862,-264.404
0.518,0.105,-0.193,-100.281,312.805,-253.235
0.504,0.070,-0.255,-111.816,305.054,-244.507
0.501,0.041,-0.336,-119.202,296.387,-235.413
0.490,-0.005,-0.371,-123.962,287.354,-228.638
0.459,-0.063,-0.425,-127.502,276.489,-217.407
0.473,-0.103,-0.482,-127.014,267.822,-209.961
0.455,-0.152,-0.555,-120.911,256.836,-200.378
0.304,-0.302,-0.716,-48.828,217.590,-159.302
0.288,-0.297,-0.739,-44.250,207.703,-147.888
0.274,-0.285,-0.761,-27.283,195.190,-139.221
0.260,-0.264,-0.780,-6.409,182.861,-130.249
0.248,-0.246,-0.783,12.207,168.152,-122.253
0.242,-0.222,-0.782,24.048,154.236,-112.793
0.239,-0.202,-0.772,34.729,138.489,-104.431
0.244,-0.183,-0.762,40.100,125.732,-93.201
0.238,-0.170,-0.759,46.082,110.535,-84.961
0.223,-0.153,-0.756,49.438,97.290,-75.439
0.210,-0.146,-0.749,52.429,81.665,-67.993
0.200,-0.130,-0.740,55.176,69.275,-59.326
0.193,-0.124,-0.727,55.420,55.420,-52.368
0.188,-0.112,-0.728,55.847,43.640,-44.189
0.184,-0.098,-0.735,54.565,29.602,-38.208
0.179,-0.076,-0.742,54.016,17.761,-31.006
0.175,-0.058,-0.752,52.063,1.648,-26.062
0.163,-0.030,-0.760,49.133,-11.475,-21.545
0.152,-0.002,-0.764,46.204,-29.785,-18.311
0.141,0.025,-0.761,41.077,-45.898,-15.320
0.159,0.044,-0.689,31.311,-104.248,-10.254
0.169,0.028,-0.681,33.386,-115.845,-8.606
0.175,0.010,-0.684,36.499,-125.244,-5.432
0.182,-0.002,-0.694,42.847,-136.414,-2.502
0.182,-0.005,-0.697,49.744,-145.630,0.549
0.182,-0.002,-0.689,57.861,-157.654,2.686
0.172,0.001,-0.678,63.904,-167.969,3.967
0.161,0.007,-0.654,71.655,-180.176,4.700
0.161,0.011,-0.629,77.820,-190.430,5.188
0.163,0.010,-0.599,83.252,-200.989,5.371
0.181,0.016,-0.581,91.064,-209.167,6.775
0.202,0.011,-0.566,97.656,-217.773,8.362
0.224,0.015,-0.557,106.262,-223.572,10.559
0.236,0.022,-0.556,114.258,-231.506,14.038
0.246,0.033,-0.552,123.047,-237.793,17.395
0.255,0.046,-0.543,129.089,-247.375,20.935
0.263,0.058,-0.526,136.658,-256.348,24.292
0.281,0.070,-0.506,141.296,-265.930,28.625
0.303,0.095,-0.482,147.705,-273.804,32.043
0.320,0.115,-0.471,152.405,-282.104,35.706
0.327,0.134,-0.458,155.396,-289.734,38.818
0.344,0.152,-0.448,157.166,-300.354,41.870
0.350,0.160,-0.431,157.654,-310.242,43.274
0.433,0.169,-0.418,156.067,-354.858,53.711
0.458,0.172,-0.416,155.457,-367.187,59.570
0.473,0.181,-0.413,154.480,-382.385,64.331
0.494,0.204,-0.404,152.649,-397.217,70.007
0.514,0.228,-0.377,149.414,-416.870,73.730
0.536,0.254,-0.344,144.714,-433.594,77.393
0.549,0.271,-0.288,136.658,-452.148,80.017
0.579,0.296,-0.239,128.174,-467.590,83.069
0.593,0.309,-0.178,115.906,-485.474,83.923
0.619,0.317,-0.119,105.347,-500.305,84.656
0.648,0.317,-0.036,92.712,-516.541,85.388
0.698,0.305,0.044,82.397,-528.809,86.731
0.747,0.287,0.152,73.730,-538.574,88.135
0.784,0.269,0.249,66.040,-543.884,90.393
0.816,0.257,0.370,62.134,-544.678,93.445
0.822,0.260,0.479,60.547,-542.236,95.093
0.826,0.276,0.598,59.204,-536.011,95.642
0.826,0.312,0.763,58.838,-526.489,93.933
0.828,0.354,0.914,58.044,-513.855,89.111
0.809,0.430,1.115,54.138,-494.995,83.740
0.812,0.454,1.284,49.622,-456.055,74.341
0.778,0.481,1.432,47.058,-445.129,64.453
0.756,0.509,1.563,44.312,-417.603,53.833
0.745,0.534,1.695,39.490,-379.517,45.349
0.663,0.595,1.706,4.639,-246.460,-2.014
0.637,0.579,1.651,-6.287,-231.812,-17.151
0.630,0.550,1.571,-14.160,-220.337,-29.846
0.637,0.501,1.513,-21.545,-216.187,-43.884
0.643,0.464,1.478,-27.100,-214.355,-55.115
0.662,0.383,1.491,-31.799,-214.172,-66.406
0.673,0.312,1.546,-33.142,-212.524,-73.181
0.684,0.241,1.608,-35.400,-208.069,-78.735
0.691,0.183,1.702,-36.499,-200.012,-82.397
0.687,0.114,1.767,-40.039,-189.087,-83.740
0.690,0.063,1.838,-44.800,-173.950,-83.435
0.689,0.005,1.875,-51.575,-159.241,-81.238
0.693,-0.045,1.884,-57.556,-141.235,-77.148
0.694,-0.095,1.860,-63.293,-125.854,-69.702
0.685,-0.132,1.814,-68.176,-110.779,-61.890
0.662,-0.164,1.768,-72.754,-99.365,-51.514
0.633,-0.175,1.723,-77.942,-88.806,-42.114
0.593,-0.172,1.702,-81.848,-80.688,-31.982
0.558,-0.152,1.694,-88.501,-72.998,-24.536
0.523,-0.131,1.682,-96.436,-64.819,-17.151
0.422,-0.121,1.398,-111.206,-27.466,2.625
0.380,-0.124,1.284,-104.980,-21.851,6.836
0.325,-0.114,1.202,-97.656,-18.372,10.315
0.277,-0.098,1.139,-86.426,-14.832,11.658
0.224,-0.070,1.108,-76.782,-12.512,10.986
0.190,-0.034,1.088,-65.552,-8.850,8.423
0.155,-0.009,1.076,-55.969,-6.042,3.296
0.137,0.006,1.059,-45.898,-0.366,-1.953
0.122,0.019,1.041,-37.781,3.235,-8.240
0.127,0.025,1.010,-29.541,8.240,-12.939
0.140,0.025,0.982,-22.705,11.902,-16.785
0.159,0.027,0.945,-16.418,15.747,-18.005
0.176,0.031,0.920,-11.658,18.677,-18.250
0.180,0.033,0.892,-5.005,21.667,-17.395
0.184,0.038,0.870,0.732,24.292,-16.479
0.176,0.037,0.847,4.028,25.879,-15.259
0.170,0.043,0.830,7.935,27.344,-13.733
0.163,0.052,0.815,10.498,28.564,-12.756
0.165,0.062,0.803,12.512,29.907,-11.597
0.167,0.073,0.793,13.672,31.982,-9.460
0.173,0.079,0.774,13.306,33.020,-7.019
0.184,0.088,0.755,11.536,35.522,-3.540
0.190,0.094,0.730,9.216,36.560,0.122
0.193,0.104,0.703,7.141,37.231,4.578
0.195,0.112,0.671,4.578,36.865,8.118
0.185,0.125,0.641,2.625,37.231,11.963
0.174,0.137,0.605,1.282,36.438,14.221
0.156,0.151,0.580,-0.183,35.461,15.381
0.143,0.163,0.533,-1.709,33.325,15.015
0.135,0.171,0.554,-4.028,32.288,14.954
0.132,0.175,0.551,-4.944,46.753,14.343
0.138,0.175,0.546,-7.507,30.823,14.160
0.145,0.173,0.535,-9.766,30.457,14.771
0.146,0.168,0.518,-10.742,30.579,15.015
0.147,0.166,0.498,-10.376,30.334,15.259
0.143,0.166,0.469,-9.216,31.372,15.686
0.134,0.171,0.447,-7.812,31.372,15.320
0.122,0.178,0.422,-5.859,30.151,14.221
0.110,0.188,0.409,-4.089,28.748,12.756
0.098,0.199,0.398,-2.258,26.489,10.254
0.092,0.208,0.398,-0.977,23.682,7.263
0.091,0.211,0.402,-0.916,22.156,4.089
0.099,0.209,0.411,-0.427,20.020,1.587
0.111,0.204,0.419,-0.061,19.592,-1.465
0.120,0.197,0.423,0.244,18.372,-3.052
0.131,0.192,0.425,1.343,18.372,-3.967
0.134,0.188,0.420,2.747,19.226,-4.639
0.135,0.187,0.413,4.395,19.836,-4.883
0.134,0.189,0.401,6.958,19.958,-5.676
0.097,0.188,0.395,8.606,20.386,-6.165
0.122,0.187,0.395,9.949,19.592,-7.935
0.118,0.189,0.396,10.315,18.372,-8.850
0.116,0.191,0.405,9.460,16.907,-10.132
0.119,0.159,0.416,8.057,15.503,-11.230
0.119,0.182,0.425,6.714,14.709,-11.963
0.121,0.175,0.433,5.005,14.343,-12.085
0.128,0.164,0.434,3.906,14.099,-12.268
0.131,0.156,0.440,2.197,14.526,-12.146
0.136,0.140,0.431,1.099,14.893,-11.047
0.139,0.135,0.417,1.404,15.137,-10.132
0.140,0.133,0.408,1.648,14.221,-9.094
0.139,0.137,0.397,2.136,13.672,-7.629
0.139,0.146,0.392,3.052,11.963,-6.958
0.139,0.152,0.399,2.625,10.742,-7.080
0.139,0.155,0.416,2.869,8.545,-6.409
0.137,0.155,0.428,1.160,6.958,-6.042
0.137,0.125,0.444,-0.305,6.958,-5.737
0.133,0.156,0.453,-1.099,6.226,-5.432
0.131,0.151,0.457,-3.052,7.263,-5.371
0.130,0.149,0.459,-3.174,7.629,-4.578
0.134,0.144,0.452,-4.028,7.935,-4.333
0.133,0.146,0.438,-3.967,8.728,-4.211
0.134,0.145,0.428,-2.380,8.484,-4.028
0.130,0.143,0.420,-0.732,8.118,-4.028
0.121,0.143,0.421,1.160,6.836,-4.150
0.116,0.148,0.424,3.540,6.775,-4.822
0.110,0.152,0.432,4.517,5.798,-5.188
0.109,0.157,0.440,5.554,5.981,-6.348
0.108,0.159,0.447,5.310,6.287,-8.118
0.112,0.161,0.455,5.676,5.493,-8.667
0.119,0.159,0.458,4.578,4.761,-9.521
0.121,0.157,0.460,3.845,4.272,-10.437
0.122,0.153,0.459,3.418,3.662,-9.827
0.123,0.149,0.456,2.869,2.441,-9.949
0.124,0.147,0.455,3.235,2.563,-9.888
0.123,0.143,0.456,2.686,1.465,-9.521
0.121,0.144,0.460,2.991,1.831,-9.277
0.119,0.143,0.461,3.540,2.014,-9.766
0.118,0.144,0.464,3.662,2.014,-9.644
0.118,0.142,0.469,2.869,1.526,-8.972
0.119,0.142,0.468,2.563,2.136,-8.850
0.121,0.141,0.469,1.831,2.258,-8.301
0.122,0.142,0.468,1.221,2.197,-8.179
0.121,0.135,0.474,-0.488,1.404,-7.446
0.122,0.132,0.471,-0.854,1.465,-7.080
0.123,0.130,0.470,-2.747,0.671,-6.592
0.126,0.128,0.468,-3.601,0.305,-5.981
0.126,0.120,0.466,-4.517,-0.366,-5.249
0.126,0.121,0.462,-4.761,-0.793,-4.822
0.096,0.117,0.460,-3.540,-0.854,-4.883
0.125,0.116,0.459,-2.930,-0.732,-4.272
0.095,0.119,0.460,-2.197,-0.427,-4.272
0.126,0.117,0.461,-0.427,-0.366,-4.700
0.094,0.112,0.462,0.610,-0.305,-4.578
0.123,0.109,0.461,1.465,-0.244,-4.761
0.126,0.105,0.462,3.113,-0.610,-4.517
0.121,0.105,0.461,4.272,0.061,-4.150
0.122,0.102,0.462,5.920,-0.366,-4.272
0.118,0.104,0.465,6.409,15.137,-3.723
0.119,0.105,0.468,7.874,-0.977,-4.028
0.119,0.110,0.471,8.545,14.954,-4.150
0.120,0.113,0.476,8.057,-0.366,-3.906
0.120,0.117,0.483,7.141,-0.732,-3.906
0.120,0.118,0.486,6.287,-1.160,-3.784
0.119,0.118,0.486,4.456,-0.916,-3.113
0.125,0.115,0.486,2.747,-1.526,-2.686
0.124,0.112,0.482,1.831,-1.709,-2.380
0.126,0.109,0.477,1.587,-2.258,-1.892
0.122,0.107,0.476,1.770,-1.953,-1.099
0.124,0.107,0.478,1.465,-2.136,-1.099
0.121,0.110,0.483,1.648,-1.831,-0.854
0.120,0.116,0.485,1.892,-1.953,-0.793
0.119,0.117,0.491,1.282,-1.709,-1.099
0.122,0.117,0.493,0.854,-1.465,-1.038
0.122,0.116,0.489,0.122,-2.441,-1.038
0.123,0.113,0.490,-0.549,-2.625,-0.977
0.122,0.113,0.488,-1.404,-2.869,-0.671
0.120,0.114,0.490,-2.075,-3.540,-0.244
0.122,0.111,0.489,-2.808,-4.211,-0.305
0.118,0.109,0.492,-3.418,-3.479,0.244
0.117,0.111,0.495,-3.845,-3.479,0.732
0.116,0.110,0.492,-3.540,-2.747,0.549
0.120,0.109,0.493,-2.991,-2.380,1.038
0.115,0.109,0.489,-2.380,-1.770,1.282
0.114,0.113,0.491,-1.770,-1.404,0.916
0.111,0.115,0.492,-1.282,-0.732,0.854
0.113,0.114,0.488,-0.305,-0.610,0.366
0.109,0.114,0.493,-0.183,0.244,0.488
0.111,0.113,0.488,15.198,0.366,0.122

0.939,0.087,1.608,76.111,-476.196,252.625
0.910,0.162,1.794,74.646,-438.782,254.211
0.881,0.256,1.917,74.829,-401.672,251.953
0.854,0.324,2.031,76.721,-353.516,244.263
0.783,0.407,2.071,82.581,-315.369,233.032
0.764,0.474,2.081,90.759,-274.048,216.614
0.742,0.538,2.070,98.206,-244.873,203.003
0.724,0.576,2.041,101.990,-203.491,187.805
0.716,0.589,1.980,105.347,-194.031,177.063
0.705,0.594,1.926,107.605,-177.185,166.992
0.681,0.562,1.885,110.291,-161.865,160.217
0.630,0.599,1.885,112.244,-152.161,153.503
0.575,0.610,1.907,112.793,-141.785,148.071
0.525,0.625,1.952,110.718,-132.935,140.198
0.492,0.630,2.017,107.849,-118.347,133.972
0.466,0.636,2.056,103.333,-105.042,127.014
0.441,0.633,2.081,98.694,-84.473,119.934
0.420,0.619,2.084,92.102,-68.054,116.089
0.403,0.612,2.074,85.022,-48.950,111.755
0.365,0.617,2.012,76.843,-37.109,108.704
0.332,0.648,1.971,68.604,-16.235,103.821
0.333,0.665,1.953,57.800,-23.682,98.999
0.309,0.667,1.951,48.828,-17.761,94.360
0.314,0.710,2.036,14.893,13.367,78.857
0.288,0.714,2.014,7.690,23.315,75.623
0.294,0.735,1.999,0.793,33.875,72.327
0.313,0.745,1.980,-5.371,46.448,70.679
0.322,0.773,1.964,-11.719,58.655,67.200
0.318,0.798,1.907,-16.235,72.998,62.317
0.301,0.830,1.910,-20.569,84.351,57.556
0.281,0.854,1.891,-23.621,97.412,51.147
0.270,0.870,1.872,-28.137,109.070,43.823
0.259,0.885,1.846,-29.602,138.245,33.386
0.248,0.933,1.805,-31.799,137.695,23.437
0.244,0.923,1.769,-34.241,150.269,9.216
0.239,0.942,1.729,-36.194,163.574,-3.052
0.232,0.949,1.691,-38.208,174.377,-17.822
0.234,0.947,1.639,-39.124,187.317,-31.311
0.239,0.934,1.593,-40.466,197.266,-47.913
0.246,0.914,1.534,-41.565,209.045,-61.768
0.260,0.884,1.482,-41.016,218.445,-75.134
0.267,0.863,1.423,-39.551,229.431,-91.064
0.276,0.848,1.381,-37.048,239.502,-104.004
0.278,0.836,1.338,-35.828,251.465,-118.713
0.280,0.808,1.284,-31.250,262.085,-131.470
0.277,0.780,1.236,-26.428,273.437,-147.705
0.282,0.749,1.181,-18.921,282.715,-161.133
0.286,0.721,1.141,-12.573,295.227,-177.246
0.293,0.695,1.093,-3.540,305.786,-190.002
0.307,0.676,1.060,3.967,318.848,-204.834
0.318,0.660,1.013,10.803,330.688,-216.125
0.321,0.644,0.974,16.357,356.750,-229.675
0.369,0.587,0.816,28.931,381.104,-274.231
0.391,0.578,0.760,26.428,389.832,-282.104
0.418,0.565,0.697,23.682,396.484,-289.734
0.447,0.547,0.607,19.104,400.818,-293.396
0.483,0.524,0.526,12.878,401.062,-296.387
0.517,0.495,0.444,7.263,399.231,-295.898
0.540,0.449,0.373,0.305,394.958,-293.335
0.555,0.414,0.287,-4.211,387.512,-288.208
0.555,0.380,0.257,-10.132,380.371,-281.128
0.544,0.360,0.216,-16.296,372.131,-272.278
0.502,0.324,0.171,-24.414,365.662,-263.977
0.514,0.301,0.137,-28.992,357.300,-254.150
0.494,0.281,0.104,-35.522,351.318,-246.277
0.468,0.269,0.071,-40.100,329.651,-238.708
0.446,0.259,0.036,-46.387,337.524,-232.788
0.420,0.251,0.005,-52.734,330.872,-226.746
0.399,0.250,-0.037,-62.073,324.707,-223.511
0.376,0.249,-0.080,-70.801,317.810,-220.825
0.360,0.242,-0.136,-83.069,308.716,-219.238
0.343,0.239,-0.179,-93.872,299.377,-218.811
0.342,0.171,-0.337,-130.249,257.629,-218.872
0.355,0.097,-0.373,-133.301,248.169,-218.872
0.372,0.069,-0.399,-132.874,241.028,-216.980
0.341,0.016,-0.445,-129.700,233.948,-209.595
0.416,-0.033,-0.468,-125.488,229.736,-201.355
0.423,-0.121,-0.504,-117.920,224.792,-193.726
0.426,-0.161,-0.540,-109.070,203.674,-180.786
0.420,-0.217,-0.593,-97.290,211.121,-168.884
0.395,-0.257,-0.638,-85.999,201.782,-154.419
0.368,-0.302,-0.693,-72.449,192.505,-142.151
0.333,-0.326,-0.735,-61.401,180.115,-127.502
0.307,-0.352,-0.792,-45.227,167.175,-115.601
0.287,-0.363,-0.838,-30.579,151.123,-99.670
0.276,-0.360,-0.875,-11.475,135.803,-86.426
0.228,-0.249,-0.878,55.298,74.280,-35.217
0.204,-0.206,-0.859,67.200,58.777,-25.391
0.182,-0.149,-0.835,76.416,45.654,-18.555
0.166,-0.098,-0.795,79.712,30.518,-12.756
0.175,-0.038,-0.779,79.529,16.663,-8.728
0.178,0.018,-0.772,79.651,-0.671,-5.371
0.169,0.060,-0.762,77.271,-17.212,-4.272
0.153,0.078,-0.740,72.388,-34.546,-4.517
0.142,0.096,-0.715,63.965,-49.988,-5.310
0.136,0.112,-0.697,55.359,-66.223,-6.592
0.137,0.125,-0.689,44.067,-81.360,-8.057
0.144,0.125,-0.682,36.438,-97.412,-9.460
0.151,0.113,-0.672,28.259,-111.084,-11.169
0.162,0.095,-0.665,23.682,-124.695,-12.634
0.171,0.078,-0.655,19.897,-135.315,-14.099
0.165,0.051,-0.655,18.127,-146.423,-14.343
0.161,0.019,-0.661,18.494,-155.334,-14.343
0.167,-0.000,-0.671,21.362,-165.283,-12.878
0.180,-0.013,-0.684,26.978,-173.950,-10.498
0.198,-0.023,-0.690,33.203,-183.838,-7.202
0.214,-0.038,-0.681,40.039,-191.101,-2.747
0.225,-0.026,-0.692,48.218,-200.256,2.075
0.233,-0.018,-0.694,60.547,-208.252,6.104
0.238,-0.013,-0.687,71.655,-219.116,10.254
0.232,0.072,-0.602,118.652,-252.991,17.273
0.239,0.094,-0.585,131.775,-258.911,17.578
0.246,0.112,-0.568,142.090,-265.381,17.822
0.264,0.129,-0.559,153.015,-271.790,18.738
0.286,0.140,-0.546,162.292,-279.053,19.958
0.343,0.143,-0.542,172.974,-286.133,22.217
0.337,0.155,-0.537,181.580,-294.678,26.245
0.362,0.166,-0.530,190.491,-301.941,29.602
0.372,0.180,-0.523,196.411,-313.293,34.668
0.382,0.199,-0.508,200.989,-323.059,38.635
0.398,0.222,-0.496,201.538,-336.975,43.762
0.417,0.257,-0.473,199.036,-349.976,47.302
0.449,0.283,-0.449,194.946,-363.586,51.392
0.473,0.303,-0.421,187.866,-381.531,54.077
0.506,0.325,-0.384,179.382,-396.790,56.824
0.529,0.331,-0.335,166.138,-414.185,58.533
0.556,0.330,-0.293,153.320,-429.016,61.707
0.572,0.332,-0.230,135.803,-445.007,65.125
0.591,0.333,-0.167,117.737,-458.984,69.214
0.681,0.259,0.101,31.189,-517.456,81.909
0.710,0.233,0.200,15.930,-530.212,84.534
0.737,0.215,0.292,6.836,-537.170,86.792
0.752,0.217,0.405,-0.854,-541.382,86.914
0.769,0.221,0.501,-3.906,-542.236,83.618
0.795,0.227,0.652,-3.906,-539.368,79.163
0.823,0.212,0.802,1.587,-533.875,71.533
0.849,0.204,1.005,8.484,-521.667,65.247
0.853,0.202,1.186,18.616,-506.165,59.082
0.866,0.208,1.437,27.283,-480.713,51.758
0.867,0.220,1.620,37.476,-451.538,46.387
0.872,0.247,1.788,45.715,-410.095,37.476
0.866,0.286,1.932,51.819,-372.375,29.968
0.868,0.326,2.020,53.101,-317.627,20.630
0.871,0.353,2.045,51.575,-285.522,13.672
0.874,0.361,1.999,49.438,-234.741,6.042
0.872,0.349,1.899,48.218,-217.407,1.099
0.855,0.329,1.810,48.462,-196.777,-2.869
0.828,0.306,1.712,49.377,-180.908,-5.981
0.786,0.277,1.655,49.255,-172.485,-8.423
0.747,0.261,1.617,48.279,-167.297,-9.705
0.715,0.253,1.623,45.715,-163.757,-11.658
0.668,0.248,1.662,42.969,-159.241,-15.015
0.598,0.237,1.701,38.147,-153.015,-18.494
0.592,0.221,1.745,31.921,-143.433,-22.766
0.572,0.194,1.780,22.095,-133.728,-24.658
0.558,0.170,1.788,12.634,-122.070,-24.841
0.550,0.149,1.766,0.427,-111.145,-23.437
0.534,0.134,1.733,-9.949,-101.135,-19.897
0.515,0.117,1.689,-21.790,-93.750,-16.663
0.392,0.095,1.572,-63.477,-71.777,-2.747
0.364,0.092,1.507,-71.899,-64.819,-0.244
0.313,0.086,1.476,-78.369,-59.143,1.282
0.323,0.083,1.385,-81.360,-51.086,2.563
0.303,0.067,1.350,-81.604,-46.082,3.418
0.270,0.063,1.305,-79.529,-41.077,3.662
0.233,0.067,1.254,-76.050,-35.339,3.601
0.192,0.075,1.213,-73.669,-16.296,3.296
0.174,0.077,1.181,-69.763,-25.879,1.465
0.145,0.083,1.147,-66.467,-22.400,-1.099
0.146,0.090,1.134,-61.401,-14.160,-5.371
0.137,0.074,1.094,-55.237,-6.592,-11.230
0.116,0.061,1.019,-45.471,0.061,-13.794
0.106,0.060,0.957,-38.269,1.099,-15.198
0.114,0.032,0.908,-30.518,1.282,-17.029
0.119,0.058,0.874,-24.353,0.305,-18.372
0.126,0.058,0.857,-19.104,-0.427,-19.348
0.127,0.062,0.850,-12.878,-0.427,-21.179
0.125,0.065,0.855,-9.338,1.038,-22.156
0.121,0.061,0.862,-5.310,3.235,-22.888
0.130,0.060,0.871,-2.808,5.676,-23.437
0.138,0.058,0.870,-1.831,8.789,-23.132
0.151,0.058,0.865,-1.526,11.780,-22.156
0.159,0.057,0.849,-3.845,14.038,-20.569
0.164,0.054,0.824,-6.653,16.846,-18.616
0.171,0.049,0.789,-8.667,18.127,-0.610
0.171,0.048,0.723,-9.766,19.958,-13.306
0.170,0.049,0.712,-10.925,19.653,-11.047
0.162,0.050,0.657,-10.681,19.470,-8.606
0.158,0.056,0.670,-10.742,19.226,-6.653
0.156,0.067,0.659,-10.681,18.921,-4.883
0.157,0.070,0.646,-10.376,18.982,-3.845
0.158,0.077,0.637,-8.484,20.508,-1.892
0.157,0.079,0.619,-7.080,21.240,-1.099
0.155,0.078,0.600,-5.554,22.278,0.183
0.154,0.078,0.577,-2.808,22.461,0.854
0.144,0.082,0.558,-1.038,22.339,0.977
0.141,0.084,0.546,2.380,21.729,1.465
0.138,0.088,0.541,4.822,22.156,1.465
0.137,0.094,0.539,6.470,22.156,2.075
0.137,0.098,0.536,7.996,23.560,1.587
0.137,0.099,0.529,9.460,24.963,2.380
0.138,0.099,0.519,9.277,26.367,2.686
0.135,0.103,0.506,9.949,26.245,2.686
0.132,0.109,0.490,9.094,26.306,3.296
0.130,0.117,0.476,8.362,25.146,3.662
0.126,0.123,0.469,7.324,23.621,3.540
0.095,0.126,0.465,5.859,21.545,3.357
0.124,0.132,0.466,4.517,20.142,3.174
0.122,0.137,0.472,2.991,18.677,2.991
0.123,0.138,0.476,0.916,18.433,2.563
0.122,0.139,0.479,-0.427,18.005,2.625
0.126,0.140,0.477,-2.075,18.738,2.563
0.130,0.135,0.459,-4.150,19.043,2.808
0.129,0.136,0.434,-4.639,19.775,2.930
0.122,0.139,0.406,-3.479,18.433,3.174
0.112,0.147,0.380,-2.563,17.334,2.808
0.109,0.155,0.371,-2.380,13.733,1.404
0.105,0.161,0.377,-2.136,10.559,0.122
0.103,0.163,0.391,-3.113,7.874,-1.343
0.106,0.160,0.409,-4.272,5.676,-2.441
0.106,0.152,0.426,-5.493,4.456,-2.808
0.109,0.147,0.437,-6.165,4.822,-3.845
0.113,0.134,0.444,-5.493,5.432,-4.944
0.114,0.129,0.441,-4.944,7.202,-5.371
0.115,0.123,0.438,-4.150,8.606,-6.104
0.120,0.116,0.426,-4.456,10.498,-6.287
0.125,0.110,0.414,-2.625,10.681,-6.409
0.130,0.105,0.390,-1.282,11.902,-6.042
0.128,0.098,0.380,0.061,10.925,-5.737
0.126,0.097,0.370,1.770,9.766,-5.188
0.123,0.101,0.366,2.502,6.836,-4.822
0.122,0.105,0.371,2.319,5.249,-4.639
0.126,0.105,0.383,1.343,2.319,-4.333
0.130,0.105,0.393,0.061,0.488,-3.784
0.128,0.104,0.401,-1.892,-0.854,-3.174
0.133,0.103,0.410,-2.136,-0.977,-1.831
0.131,0.100,0.416,-2.686,-2.136,-1.343
0.131,0.100,0.421,-4.272,-1.648,-0.183
0.130,0.100,0.423,-3.906,-1.038,0.671
0.127,0.104,0.426,-3.601,-0.244,0.977
0.126,0.105,0.425,-3.784,0.610,1.160
0.126,0.107,0.424,-3.784,0.549,1.648
0.125,0.110,0.423,-2.747,0.488,1.587
0.155,0.110,0.423,-3.052,0.366,1.465
0.125,0.109,0.421,-3.235,-0.183,2.197
0.125,0.104,0.417,-3.113,-1.282,2.319
0.127,0.106,0.420,-2.014,-2.319,2.197
0.128,0.108,0.423,-0.977,-3.113,2.197
0.129,0.113,0.431,-0.366,-4.211,1.709
0.132,0.114,0.441,-0.427,-5.188,1.709
0.138,0.120,0.451,-0.671,-6.287,2.014
0.141,0.119,0.463,-0.549,-6.592,2.136
0.148,0.118,0.464,-0.122,-6.470,2.502
0.149,0.118,0.463,0.854,-6.042,3.174
0.148,0.122,0.460,2.441,-5.920,3.174
0.142,0.123,0.462,4.211,-5.493,3.235
0.139,0.130,0.474,5.493,-5.127,2.991
0.134,0.135,0.479,5.493,-4.333,2.502
0.133,0.142,0.490,5.859,-4.333,2.014
0.132,0.144,0.529,5.432,-3.662,1.343
0.136,0.141,0.503,5.493,-2.747,0.854
0.132,0.144,0.508,5.188,-2.136,0.000
0.130,0.146,0.508,3.601,-1.282,-0.366
0.132,0.148,0.506,2.808,-1.160,-0.793
0.136,0.148,0.506,1.099,-1.282,-1.038
0.142,0.146,0.504,0.061,-2.136,-0.610
0.142,0.144,0.500,-1.526,-2.930,-0.610
0.141,0.141,0.500,-3.235,-2.991,-0.549
0.136,0.141,0.500,-3.235,-3.296,-0.244
0.135,0.138,0.503,-3.479,-3.052,-0.610
0.135,0.135,0.505,-4.028,-3.174,-0.916
0.135,0.132,0.503,-3.479,-1.953,-1.282
0.138,0.127,0.501,-3.296,-1.282,-1.404
0.136,0.123,0.499,-2.441,-0.427,-1.770
0.132,0.122,0.501,-1.038,0.305,-2.380
0.133,0.123,0.501,0.366,0.061,-2.747
0.132,0.122,0.470,2.197,1.282,-3.845
0.133,0.125,0.501,2.808,1.770,-4.456
0.134,0.123,0.506,3.357,2.441,-5.066
0.136,0.124,0.506,3.845,3.235,-5.676
0.140,0.123,0.510,4.150,3.662,-5.615
0.144,0.117,0.509,4.089,3.967,-5.371
0.146,0.110,0.501,3.174,5.066,-4.883
0.143,0.105,0.497,2.930,4.883,-4.089
0.139,0.104,0.489,2.014,4.944,-3.357
0.137,0.102,0.482,1.709,4.517,-2.563
0.140,0.095,0.477,1.038,3.540,-1.648
0.137,0.094,0.473,1.526,2.625,-0.610
0.138,0.090,0.474,1.953,1.831,0.183
0.139,0.092,0.475,2.808,1.343,1.038
0.137,0.099,0.482,3.479,0.488,1.831
0.134,0.104,0.488,3.906,1.465,2.319
0.135,0.113,0.495,4.700,1.282,2.502
0.129,0.122,0.504,3.967,1.953,2.441
0.125,0.130,0.503,2.258,1.282,2.441
0.094,0.135,0.500,0.366,0.671,1.831
0.125,0.135,0.502,-0.916,-14.587,1.831
0.125,0.131,0.501,-2.014,-0.488,1.587
0.125,0.128,0.501,-2.869,-0.549,1.160
0.124,0.125,0.507,-3.235,-1.160,0.977

0.856,0.377,1.444,53.528,-347.839,250.549
0.873,0.486,1.576,58.167,-328.369,243.774
0.891,0.514,1.672,63.843,-305.786,233.826
0.885,0.564,1.738,75.562,-274.292,224.182
0.829,0.636,1.762,88.867,-255.066,211.548
0.791,0.724,1.829,100.281,-237.122,199.890
0.757,0.831,1.911,110.291,-221.069,183.655
0.738,0.913,1.999,115.662,-200.928,167.358
0.717,1.004,2.061,121.704,-184.509,150.208
0.701,1.074,2.146,125.977,-164.368,130.310
0.693,1.139,2.178,129.211,-148.193,114.258
0.679,1.180,2.229,130.981,-126.404,95.337
0.665,1.209,2.272,129.761,-109.131,80.688
0.639,1.232,2.293,127.686,-93.079,64.270
0.612,1.280,2.313,120.422,-75.073,50.659
0.579,1.255,2.324,112.000,-47.852,35.034
0.558,1.249,2.342,98.511,-49.683,22.705
0.537,1.235,2.359,87.463,-37.964,8.484
0.527,1.208,2.378,73.730,-23.193,-2.380
0.534,1.173,2.387,57.251,-9.460,-13.245
0.541,1.147,2.397,43.579,7.996,-21.362
0.551,1.114,2.392,26.855,23.682,-28.320
0.551,1.093,2.378,13.367,43.518,-33.630
0.545,1.088,2.354,-4.395,58.411,-38.086
0.532,1.088,2.285,-20.874,76.111,-42.786
0.508,1.093,2.270,-40.100,88.806,-47.119
0.480,1.089,2.220,-54.749,102.112,-53.955
0.453,1.034,1.921,-118.225,155.273,-84.351
0.431,1.016,1.865,-131.714,165.894,-91.003
0.418,1.023,1.781,-139.832,178.528,-100.891
0.415,1.009,1.756,-147.705,191.345,-110.779
0.401,0.983,1.707,-151.306,209.961,-124.146
0.403,0.947,1.640,-150.574,226.257,-136.353
0.413,0.917,1.577,-146.545,244.019,-151.794
0.417,0.892,1.504,-139.465,264.832,-165.222
0.426,0.857,1.437,-132.446,283.020,-181.580
0.427,0.836,1.336,-121.338,302.612,-195.068
0.420,0.818,1.250,-111.206,316.956,-212.280
0.420,0.804,1.152,-98.755,331.848,-226.013
0.417,0.792,1.077,-89.539,340.393,-243.652
0.418,0.779,1.001,-78.308,350.464,-257.874
0.418,0.763,0.950,-69.458,357.666,-275.269
0.427,0.739,0.902,-59.509,366.638,-289.734
0.448,0.713,0.861,-52.673,372.803,-306.091
0.463,0.698,0.811,-45.349,381.165,-319.641
0.541,0.561,0.522,-37.964,397.156,-356.567
0.566,0.512,0.456,-39.795,396.362,-357.544
0.585,0.478,0.392,-41.016,393.982,-355.713
0.616,0.436,0.344,-44.800,391.052,-350.647
0.645,0.405,0.301,-48.218,387.146,-343.384
0.670,0.370,0.264,-52.856,383.728,-331.970
0.693,0.331,0.222,-59.082,378.540,-320.618
0.698,0.286,0.176,-66.406,374.390,-308.167
0.695,0.250,0.117,-72.266,366.882,-292.358
0.683,0.223,0.071,-81.787,359.802,-280.457
0.662,0.206,0.026,-90.515,350.037,-267.456
0.634,0.184,-0.040,-101.868,341.187,-257.385
0.591,0.164,-0.103,-110.779,329.590,-248.535
0.555,0.133,-0.180,-121.094,318.237,-243.774
0.519,0.113,-0.241,-130.249,302.551,-238.953
0.497,0.077,-0.302,-139.648,287.354,-236.694
0.472,0.044,-0.331,-145.508,268.799,-233.582
0.363,-0.193,-0.415,-139.587,223.633,-211.975
0.343,-0.256,-0.433,-129.150,217.163,-206.177
0.303,-0.284,-0.462,-118.164,210.510,-198.303
0.251,-0.326,-0.495,-104.675,204.590,-191.040
0.256,-0.347,-0.527,-92.285,195.557,-182.251
0.242,-0.368,-0.558,-76.233,188.171,-171.082
0.236,-0.381,-0.583,-47.302,175.476,-161.560
0.245,-0.400,-0.607,-47.302,164.978,-147.827
0.262,-0.407,-0.633,-34.607,149.292,-134.338
0.278,-0.411,-0.648,-20.081,135.437,-116.516
0.293,-0.411,-0.640,-6.409,120.056,-100.220
0.304,-0.396,-0.630,5.249,109.253,-80.017
0.292,-0.346,-0.612,20.325,97.778,-64.819
0.271,-0.347,-0.599,32.043,90.027,-47.791
0.244,-0.308,-0.583,45.105,79.407,-35.278
0.206,-0.250,-0.568,56.091,72.327,-23.071
0.103,-0.067,-0.547,79.285,35.889,-4.150
0.092,-0.029,-0.556,78.857,24.658,-2.930
0.085,0.000,-0.562,76.599,14.526,-2.380
0.088,0.005,-0.572,74.585,2.014,-1.648
0.089,0.002,-0.574,74.158,-8.362,-0.122
0.096,-0.004,-0.575,75.684,-19.409,1.526
0.100,-0.012,-0.586,76.660,-29.663,3.967
0.103,-0.021,-0.600,80.200,-40.649,6.897
0.103,-0.024,-0.612,84.045,-50.842,10.498
0.099,-0.027,-0.625,87.769,-62.866,13.428
0.099,-0.028,-0.633,93.567,-72.998,17.761
0.090,-0.028,-0.639,98.694,-86.365,20.020
0.089,-0.024,-0.643,104.126,-97.107,22.888
0.088,-0.017,-0.648,108.398,-111.877,25.635
0.101,-0.009,-0.641,113.953,-123.596,29.175
0.117,0.001,-0.635,118.530,-138.855,31.860
0.123,0.012,-0.628,124.390,-150.635,34.668
0.126,0.023,-0.617,128.784,-164.856,36.438
0.132,0.035,-0.596,134.583,-176.819,37.781
0.135,0.047,-0.572,138.977,-190.430,38.818
0.150,0.057,-0.550,142.395,-201.538,40.100
0.172,0.071,-0.514,145.874,-212.524,41.321
0.195,0.091,-0.486,149.231,-220.825,43.213
0.217,0.100,-0.459,151.245,-229.248,45.532
0.294,0.109,-0.393,156.494,-256.592,61.890
0.314,0.115,-0.388,156.372,-263.550,66.284
0.319,0.115,-0.389,155.762,-272.034,70.984
0.331,0.122,-0.386,156.311,-280.457,74.890
0.335,0.136,-0.387,154.724,-290.283,79.163
0.338,0.152,-0.389,152.954,-301.636,81.421
0.354,0.163,-0.388,151.306,-315.125,83.435
0.361,0.169,-0.375,148.743,-327.576,85.083
0.388,0.184,-0.356,145.996,-342.102,87.219
0.414,0.199,-0.316,140.930,-354.675,88.806
0.443,0.207,-0.279,136.414,-369.019,91.553
0.470,0.217,-0.227,129.395,-380.005,94.971
0.495,0.220,-0.174,121.582,-405.273,99.243
0.508,0.225,-0.114,111.328,-399.780,102.234
0.522,0.219,-0.065,100.708,-407.959,105.591
0.542,0.217,-0.008,87.158,-416.626,107.971
0.565,0.217,0.029,76.721,-422.913,111.206
0.584,0.217,0.073,63.354,-429.321,113.220
0.606,0.221,0.114,52.002,-434.265,114.929
0.622,0.225,0.167,42.358,-438.049,115.784
0.681,0.240,0.480,-15.747,-451.904,110.168
0.717,0.231,0.569,-27.649,-451.477,103.943
0.702,0.193,0.660,-35.400,-454.285,98.511
0.714,0.162,0.794,-38.696,-453.491,92.834
0.729,0.140,0.992,-40.710,-439.087,88.684
0.750,0.117,1.143,-40.405,-419.006,83.923
0.758,0.109,1.292,-37.537,-386.353,79.590
0.756,0.119,1.378,-30.212,-356.628,74.158
0.759,0.126,1.425,-22.400,-323.425,67.627
0.757,0.142,1.436,-12.390,-298.035,46.997
0.760,0.149,1.424,-4.578,-272.827,58.716
0.752,0.167,1.407,3.479,-256.897,55.725
0.741,0.170,1.403,9.216,-241.089,52.673
0.731,0.180,1.414,14.832,-228.516,49.011
0.716,0.173,1.425,19.531,-216.980,45.166
0.706,0.176,1.429,25.696,-201.477,42.114
0.677,0.186,1.420,31.860,-187.134,37.476
0.646,0.186,1.389,38.940,-173.157,34.485
0.609,0.191,1.374,45.227,-164.795,31.006
0.564,0.206,1.365,48.401,-157.166,26.978
0.534,0.215,1.371,48.035,-152.710,25.391
0.512,0.242,1.398,44.067,-148.315,23.010
0.494,0.265,1.423,34.546,-144.043,21.240
0.474,0.279,1.438,26.245,-138.245,19.348
0.456,0.290,1.442,13.611,-132.996,19.165
0.433,0.307,1.444,4.822,-127.747,18.738
0.403,0.325,1.449,-5.676,-121.887,17.212
0.354,0.338,1.445,-15.320,-115.417,15.259
0.285,0.348,1.376,-54.749,-88.623,-5.310
0.283,0.315,1.380,-62.744,-82.642,-10.498
0.288,0.279,1.358,-67.322,-74.768,-14.771
0.294,0.238,1.318,-71.228,-68.787,-17.395
0.298,0.208,1.278,-74.036,-62.500,-20.020
0.302,0.173,1.229,-75.134,-56.213,-20.752
0.299,0.150,1.193,-75.439,-52.734,-22.644
0.292,0.116,1.158,-73.608,-49.194,-24.353
0.284,0.089,1.138,-70.618,-31.555,-25.818
0.282,0.060,1.122,-66.101,-42.603,-27.161
0.281,0.026,1.106,-61.279,-39.490,-28.503
0.286,-0.002,1.080,-54.077,-32.959,-28.198
0.287,-0.022,1.056,-47.058,-29.236,-27.771
0.289,-0.039,1.027,-39.001,-24.353,-26.367
0.292,-0.048,1.012,-31.006,-20.081,-24.231
0.295,-0.046,0.992,-23.804,-17.639,-21.912
0.296,-0.040,0.983,-17.822,-14.587,-18.982
0.303,-0.026,0.977,-13.794,-12.512,-0.671
0.305,-0.013,0.980,-11.963,-8.911,-12.695
0.311,0.000,0.975,-9.583,-6.531,-9.766
0.303,0.017,0.967,-8.667,-2.319,-6.104
0.299,0.034,0.952,-9.094,0.122,-3.784
0.284,0.049,0.910,-9.766,3.723,-2.258
0.277,0.065,0.916,-10.620,6.042,-0.916
0.269,0.080,0.898,-12.207,8.057,-1.160
0.267,0.093,0.875,-13.245,10.986,-1.343
0.270,0.100,0.854,-13.489,13.245,-1.709
0.273,0.099,0.826,-13.489,15.625,-2.075
0.274,0.103,0.799,-12.390,18.188,-2.014
0.277,0.105,0.769,-11.230,20.203,-1.831
0.276,0.105,0.746,-11.230,22.705,-1.465
0.257,0.117,0.636,-6.165,26.917,0.305
0.251,0.122,0.618,-5.127,26.672,0.305
0.247,0.127,0.605,-4.089,26.672,-0.244
0.244,0.133,0.603,-2.747,26.855,-0.366
0.239,0.136,0.597,-1.465,27.771,-0.183
0.234,0.141,0.593,-1.953,28.503,-0.671
0.229,0.146,0.586,-1.892,30.334,14.954
0.224,0.146,0.572,-1.648,31.128,0.244
0.213,0.148,0.551,-2.136,31.738,-0.427
0.197,0.150,0.536,-3.052,31.433,-0.732
0.192,0.157,0.516,-3.723,31.494,-0.610
0.192,0.164,0.502,-4.578,15.686,-1.770
0.189,0.168,0.487,-6.348,31.006,-2.197
0.189,0.170,0.473,-7.324,30.151,-2.502
0.187,0.170,0.454,-8.911,29.236,-3.479
0.185,0.169,0.439,-10.376,28.992,-4.089
0.185,0.167,0.424,-11.963,27.893,-4.333
0.188,0.163,0.416,-13.123,26.978,-5.249
0.187,0.152,0.402,-14.709,25.513,-5.371
0.188,0.146,0.391,-16.052,24.109,-4.761
0.184,0.139,0.382,-15.747,22.644,-4.761
0.184,0.133,0.378,-15.930,21.423,-5.066
0.178,0.128,0.375,-0.732,20.935,-5.432
0.182,0.125,0.374,-15.503,19.897,-5.859
0.183,0.121,0.373,-13.794,19.958,-5.920
0.188,0.119,0.367,-12.695,19.897,-5.920
0.188,0.117,0.363,-11.658,20.386,-6.165
0.187,0.114,0.358,-9.766,19.836,-6.042
0.184,0.112,0.351,-8.362,20.325,-5.493
0.187,0.114,0.350,-6.592,18.860,-5.371
0.186,0.114,0.349,-4.211,18.433,-5.493
0.185,0.113,0.343,-2.625,17.517,-5.310
0.184,0.114,0.346,-1.526,16.296,-5.371
0.184,0.115,0.351,-1.221,15.747,-5.188
0.185,0.118,0.360,0.244,14.282,-5.432
0.183,0.117,0.371,-0.061,12.329,-5.188
0.188,0.121,0.385,-1.465,11.597,-4.761
0.189,0.094,0.401,-2.441,10.071,-4.761
0.191,0.124,0.406,-4.700,10.559,-4.578
0.196,0.121,0.407,-4.883,9.766,-4.272
0.202,0.121,0.401,-5.127,11.169,-3.845
0.205,0.116,0.391,-4.211,11.230,-3.235
0.204,0.112,0.387,-2.991,11.353,-3.113
0.199,0.112,0.384,-2.930,10.925,-2.808
0.194,0.116,0.387,-1.587,9.949,-2.930
0.194,0.117,0.396,-0.732,9.766,-3.723
0.194,0.120,0.408,-0.610,8.667,-4.150
0.198,0.117,0.417,-1.343,8.667,-4.272
0.201,0.111,0.429,-0.549,8.789,-4.578
0.207,0.109,0.437,-0.977,8.606,-4.456
0.203,0.104,0.438,-0.488,9.705,-3.845
0.200,0.102,0.434,0.000,10.559,-2.747
0.198,0.104,0.425,-0.183,11.108,-2.197
0.190,0.106,0.419,0.244,11.719,-0.610
0.186,0.113,0.407,0.427,10.681,-0.610
0.178,0.119,0.407,-0.793,9.766,-0.549
0.171,0.124,0.412,-0.977,7.568,-0.488
0.166,0.125,0.419,-3.174,5.737,-1.404
0.168,0.125,0.431,-4.822,4.456,-1.221
0.172,0.117,0.443,-6.531,3.174,-1.221
0.177,0.112,0.455,-6.592,3.601,-1.465
0.177,0.110,0.459,-7.202,4.333,-1.465
0.177,0.111,0.464,-8.179,6.042,-0.732
0.174,0.115,0.460,-8.362,6.836,-0.793
0.171,0.115,0.452,-7.812,7.874,-1.465
0.170,0.117,0.433,-8.057,8.179,-1.465
0.174,0.115,0.418,-7.385,7.507,-2.991
0.173,0.112,0.406,-5.615,5.859,-3.601
0.173,0.107,0.405,-4.456,4.883,-3.906
0.173,0.102,0.413,-2.014,3.296,-5.249
0.175,0.098,0.422,-0.549,2.869,-5.005
0.181,0.097,0.440,1.221,2.136,-5.676
0.184,0.093,0.456,1.770,2.502,-6.409
0.191,0.090,0.469,3.296,2.991,-6.531
0.189,0.089,0.480,3.784,4.761,-6.714
0.191,0.092,0.486,3.296,6.042,-6.958
0.191,0.093,0.483,2.808,7.507,-6.836
0.196,0.091,0.484,2.258,7.507,-6.714
0.197,0.090,0.478,0.916,7.812,-6.470
0.199,0.086,0.475,1.343,8.057,-6.592
0.201,0.081,0.477,0.916,7.751,-6.042
0.205,0.075,0.477,0.305,8.179,-5.432
0.204,0.073,0.480,0.183,8.179,-5.005
0.212,0.070,0.478,-0.549,7.446,-3.479
0.214,0.063,0.483,-0.671,8.301,-2.380
0.214,0.061,0.478,-1.038,7.507,-1.038
0.216,0.057,0.479,-1.221,7.568,0.427
0.212,0.057,0.482,-1.221,6.775,1.526
0.206,0.057,0.488,-1.892,6.531,2.563
0.205,0.058,0.496,-2.075,6.836,3.113
0.200,0.056,0.469,-1.892,7.568,4.211
0.200,0.057,0.501,-1.587,8.423,4.639
0.197,0.058,0.502,-0.977,9.705,4.517
0.200,0.057,0.499,-0.244,10.132,4.639
0.196,0.057,0.501,0.305,11.719,4.517
0.199,0.059,0.503,0.977,12.268,4.456
0.197,0.059,0.503,1.526,13.000,4.211
0.196,0.060,0.507,2.380,13.062,3.967
0.193,0.061,0.516,3.174,13.977,3.113
0.193,0.061,0.524,2.869,13.611,2.197
0.193,0.061,0.536,2.686,15.503,2.197
0.195,0.059,0.547,3.235,16.724,1.709
0.191,0.056,0.551,2.869,18.982,1.770
0.190,0.053,0.544,3.113,21.179,2.075
0.189,0.059,0.542,3.235,22.583,2.197
0.186,0.068,0.542,2.869,24.292,1.831
0.179,0.072,0.539,2.075,24.719,1.831
0.178,0.074,0.534,0.000,25.085,1.526
0.186,0.072,0.525,-0.793,24.902,1.221
0.195,0.065,0.518,-2.625,24.170,2.014
0.202,0.059,0.512,-3.113,24.414,4.089
0.196,0.055,0.510,-2.930,23.254,5.249
0.194,0.058,0.507,-3.174,23.193,6.836
0.187,0.057,0.512,-3.113,22.400,8.728
0.181,0.068,0.515,-3.723,22.461,9.583
0.172,0.071,0.521,-4.333,22.766,10.437
0.168,0.076,0.525,-5.310,22.278,10.132
0.165,0.077,0.525,-7.019,22.644,10.193
0.164,0.077,0.524,-7.507,23.132,9.949

1.144,0.090,1.497,113.220,-461.548,323.303
1.101,0.178,1.733,113.708,-423.523,322.571
1.060,0.311,1.891,112.183,-389.282,318.054
1.030,0.412,2.041,110.413,-346.375,307.312
1.002,0.521,2.130,107.239,-309.509,296.570
0.970,0.603,2.168,103.210,-265.869,281.738
0.896,0.678,2.166,96.375,-233.643,268.677
0.923,0.711,2.096,91.858,-198.914,252.136
0.882,0.734,2.058,87.402,-176.758,240.723
0.823,0.742,1.976,83.923,-143.311,225.769
0.733,0.761,1.880,81.787,-151.062,216.064
0.667,0.800,1.881,80.383,-145.752,200.867
0.640,0.811,1.904,79.346,-134.827,186.340
0.595,0.827,1.939,82.581,-123.535,167.908
0.557,0.843,1.969,87.036,-109.253,151.855
0.520,0.864,1.987,93.506,-101.685,137.878
0.518,0.876,2.048,95.642,-86.731,123.779
0.526,0.870,2.067,94.055,-71.045,114.258
0.506,0.865,2.054,93.201,-53.589,104.248
0.471,0.871,2.014,90.881,-44.006,95.642
0.425,0.891,1.992,87.280,-37.781,85.815
0.400,0.910,2.003,79.651,-34.058,77.026
0.382,0.937,2.044,69.946,-29.236,66.589
0.380,0.956,2.099,56.763,-20.874,58.411
0.382,0.969,2.141,44.556,-11.047,49.744
0.360,1.018,2.087,-7.202,60.730,22.949
0.345,1.022,2.018,-18.433,58.716,17.395
0.331,1.034,1.969,-25.879,69.031,9.644
0.315,1.042,1.920,-31.616,82.642,2.075
0.294,1.058,1.891,-36.621,93.445,-7.629
0.279,1.072,1.862,-40.344,108.276,-18.188
0.258,1.089,1.832,-44.434,120.605,-45.776
0.242,1.093,1.795,-48.035,135.132,-45.166
0.238,1.099,1.769,-52.856,147.827,-58.472
0.241,1.097,1.720,-56.213,163.452,-74.951
0.242,1.096,1.728,-59.814,177.612,-89.050
0.247,1.086,1.700,-61.646,195.862,-107.239
0.255,1.058,1.643,-62.073,211.548,-123.169
0.262,1.020,1.583,-61.218,229.797,-142.395
0.277,0.964,1.514,-58.960,243.896,-157.593
0.302,0.917,1.453,-57.068,260.315,-174.988
0.327,0.874,1.385,-53.406,272.827,-188.171
0.342,0.830,1.338,-49.316,284.180,-203.003
0.345,0.800,1.302,-43.030,300.110,-215.210
0.340,0.773,1.289,-35.156,312.500,-231.812
0.347,0.749,1.276,-26.978,329.956,-245.972
0.373,0.719,1.261,-20.691,345.398,-262.268
0.415,0.700,1.212,-13.245,366.760,-274.963
0.449,0.677,1.137,-7.568,382.690,-288.330
0.538,0.569,0.684,-10.010,412.476,-308.472
0.536,0.538,0.573,-17.029,407.837,-306.213
0.518,0.508,0.509,-23.499,402.466,-303.223
0.507,0.489,0.448,-29.846,393.738,-301.147
0.490,0.468,0.409,-36.499,387.939,-298.401
0.471,0.462,0.375,-41.199,379.944,-297.058
0.457,0.458,0.346,-48.462,375.793,-295.959
0.433,0.447,0.303,-54.138,370.422,-294.739
0.423,0.445,0.263,-60.791,365.845,-293.518
0.414,0.443,0.189,-65.613,358.704,-291.870
0.416,0.434,0.165,-72.449,353.577,-290.588
0.432,0.415,0.120,-76.599,345.032,-287.170
0.442,0.380,0.076,-80.200,339.478,-283.997
0.439,0.347,0.042,-83.862,330.994,-277.954
0.428,0.311,-0.005,-86.914,325.317,-271.973
0.417,0.284,-0.046,-91.248,318.054,-264.099
0.402,0.250,-0.109,-97.229,311.768,-255.554
0.392,0.228,-0.171,-102.783,302.734,-243.713
0.387,0.204,-0.246,-109.436,293.396,-233.948
0.333,0.112,-0.442,-123.718,239.014,-200.378
0.315,0.088,-0.497,-122.559,224.121,-196.106
0.253,0.039,-0.490,-121.338,212.585,-190.247
0.293,0.031,-0.481,-120.178,203.735,-184.387
0.291,0.006,-0.496,-114.441,196.167,-180.725
0.287,-0.014,-0.513,-106.323,189.026,-176.575
0.289,-0.047,-0.549,-97.778,182.129,-171.204
0.284,-0.073,-0.585,-87.769,173.218,-164.490
0.276,-0.122,-0.638,-75.745,163.513,-158.081
0.268,-0.150,-0.681,-65.979,151.794,-149.353
0.262,-0.183,-0.712,-52.185,141.541,-142.029
0.255,-0.211,-0.749,-40.894,128.174,-132.202
0.257,-0.244,-0.777,-26.428,115.417,-119.507
0.257,-0.266,-0.796,-12.451,100.403,-107.544
0.237,-0.232,-0.812,50.720,39.673,-53.467
0.229,-0.199,-0.793,63.171,27.710,-40.833
0.222,-0.173,-0.767,75.134,15.320,-30.640
0.217,-0.131,-0.747,83.801,5.005,-19.958
0.211,-0.103,-0.732,90.515,-7.263,-12.085
0.194,-0.076,-0.732,92.346,-18.860,-3.540
0.182,-0.050,-0.738,93.140,-32.349,2.319
0.171,-0.008,-0.743,92.834,-61.584,8.240
0.167,0.058,-0.747,90.393,-62.317,11.841
0.161,0.065,-0.747,87.585,-77.087,14.832
0.157,0.085,-0.749,85.144,-93.506,15.503
0.147,0.093,-0.763,84.045,-108.459,15.381
0.144,0.092,-0.783,84.412,-124.146,15.930
0.152,0.090,-0.803,87.585,-138.550,16.602
0.164,0.081,-0.830,91.980,-155.090,17.334
0.180,0.074,-0.847,99.365,-168.274,19.348
0.196,0.072,-0.854,105.896,-187.073,21.912
0.206,0.073,-0.846,115.662,-202.209,23.804
0.222,0.079,-0.825,123.718,-220.764,26.367
0.239,0.094,-0.787,133.057,-234.497,28.687
0.266,0.110,-0.745,139.954,-249.451,31.128
0.281,0.128,-0.696,147.095,-259.155,32.837
0.293,0.135,-0.629,152.161,-270.508,35.278
0.300,0.139,-0.621,156.616,-278.198,36.804
0.406,0.126,-0.558,164.612,-307.556,48.950
0.413,0.115,-0.568,165.405,-314.636,55.481
0.446,0.096,-0.591,167.297,-323.242,62.012
0.489,0.080,-0.610,170.044,-335.449,72.144
0.526,0.070,-0.614,173.096,-347.168,81.604
0.565,0.066,-0.605,175.293,-374.695,92.834
0.587,0.068,-0.578,176.514,-375.366,102.661
0.603,0.064,-0.558,174.744,-406.128,114.807
0.618,0.086,-0.506,168.823,-408.142,123.901
0.650,0.134,-0.458,161.194,-437.500,134.216
0.672,0.180,-0.400,148.071,-439.148,139.404
0.693,0.207,-0.351,134.277,-453.247,143.127
0.728,0.214,-0.278,115.967,-470.276,146.240
0.781,0.210,-0.204,101.074,-481.689,150.391
0.819,0.183,-0.117,85.999,-494.995,154.175
0.854,0.156,-0.067,73.975,-504.456,158.997
0.882,0.124,0.015,67.383,-516.235,162.842
0.912,0.094,0.114,62.805,-523.437,167.358
0.906,0.154,0.852,61.340,-486.450,180.420
0.874,0.204,1.083,59.265,-453.796,178.589
0.842,0.275,1.237,54.504,-422.058,174.316
0.802,0.346,1.331,47.913,-379.395,166.931
0.779,0.436,1.373,38.330,-345.886,158.081
0.763,0.500,1.359,30.762,-308.899,145.142
0.747,0.547,1.304,23.804,-284.424,132.996
0.746,0.596,1.271,18.860,-263.428,117.554
0.717,0.607,1.186,16.174,-246.948,103.699
0.679,0.624,1.146,14.587,-243.896,86.609
0.676,0.618,1.153,9.155,-241.028,73.364
0.692,0.564,1.179,3.479,-237.061,57.251
0.700,0.513,1.194,2.197,-230.774,44.556
0.699,0.446,1.197,4.456,-227.478,16.541
0.690,0.372,1.224,10.620,-222.839,19.592
0.672,0.303,1.262,19.043,-218.445,12.573
0.646,0.260,1.302,24.109,-210.510,5.981
0.622,0.234,1.349,25.330,-204.773,1.099
0.594,0.209,1.392,23.499,-200.073,-5.066
0.576,0.183,1.449,18.005,-194.580,-8.972
0.554,0.156,1.507,10.071,-191.162,-13.062
0.549,0.124,1.580,-2.258,-187.012,-15.259
0.556,0.074,1.639,-14.221,-180.542,-14.587
0.565,0.039,1.688,-28.748,-170.593,-12.329
0.581,-0.007,1.716,-40.100,-160.339,-8.484
0.586,-0.041,1.723,-52.063,-147.400,-4.028
0.574,-0.071,1.713,-60.608,-136.536,1.221
0.488,-0.112,1.591,-85.388,-99.670,15.503
0.471,-0.113,1.565,-87.708,-93.323,18.311
0.451,-0.108,1.547,-87.402,-85.388,21.362
0.427,-0.089,1.529,-85.999,-78.369,23.987
0.395,-0.072,1.511,-84.534,-68.176,25.940
0.369,-0.049,1.473,-81.421,-59.631,27.466
0.338,-0.020,1.407,-79.285,-49.622,29.480
0.321,0.013,1.380,-74.585,-42.297,29.968
0.299,0.036,1.318,-69.824,-36.194,29.846
0.271,0.065,1.246,-64.331,-31.128,29.907
0.246,0.088,1.204,-57.861,-28.259,27.161
0.223,0.101,1.165,-49.072,-25.513,24.658
0.201,0.120,1.152,-41.992,-23.621,20.752
0.195,0.129,1.137,-32.532,-18.250,17.395
0.184,0.142,1.126,-25.818,-14.038,13.367
0.180,0.146,1.104,-18.005,-6.897,10.437
0.175,0.159,1.079,-12.329,-2.747,7.812
0.178,0.167,1.042,-7.751,3.601,4.944
0.178,0.177,1.012,-3.601,6.409,2.563
0.180,0.183,0.974,-2.014,9.521,0.793
0.186,0.188,0.951,-1.648,11.719,0.000
0.195,0.204,0.917,-1.526,13.184,-0.549
0.197,0.206,0.892,-1.526,13.916,-0.488
0.202,0.210,0.882,-0.793,16.113,-0.366
0.201,0.220,0.862,-0.916,18.250,-0.488
0.201,0.230,0.844,-1.831,20.874,0.061
0.204,0.240,0.816,-2.136,24.109,0.916
0.211,0.255,0.785,-4.028,25.574,2.197
0.214,0.267,0.744,-5.127,28.687,3.113
0.211,0.274,0.712,-4.944,29.541,3.540
0.204,0.283,0.675,-5.676,30.334,4.456
0.199,0.296,0.655,-6.165,29.236,4.456
0.194,0.305,0.638,-6.592,29.114,2.991
0.186,0.308,0.625,-7.263,28.259,1.099
0.178,0.314,0.616,-7.812,28.442,-0.916
0.175,0.317,0.609,-8.911,28.687,-3.723
0.177,0.318,0.605,-9.399,29.358,-7.019
0.181,0.315,0.592,-10.925,30.762,-10.193
0.182,0.302,0.572,-11.963,31.921,-13.062
0.183,0.290,0.552,-12.573,32.166,-15.625
0.185,0.273,0.533,-13.550,31.860,-18.066
0.182,0.262,0.511,-14.038,31.250,-20.203
0.180,0.250,0.500,-14.526,30.334,-22.583
0.180,0.237,0.487,-15.137,29.602,-24.963
0.177,0.227,0.480,-16.113,29.053,-26.733
0.174,0.214,0.476,-16.785,29.114,-28.381
0.173,0.201,0.470,-17.212,28.259,-30.640
0.193,0.144,0.424,-17.090,27.771,-32.471
0.193,0.133,0.407,-17.517,27.039,-32.166
0.196,0.123,0.394,-17.151,25.269,-31.250
0.196,0.113,0.382,-16.602,23.682,-30.029
0.194,0.105,0.377,-15.808,21.851,-28.503
0.191,0.099,0.376,-14.282,20.081,-27.405
0.190,0.092,0.379,-13.489,18.799,-26.733
0.189,0.085,0.346,-12.817,18.372,-25.146
0.189,0.076,0.377,-10.803,17.822,-24.109
0.191,0.068,0.374,-8.911,17.822,-22.888
0.194,0.061,0.374,-6.836,17.395,-21.423
0.198,0.059,0.368,-5.676,18.250,-20.203
0.196,0.057,0.370,-4.517,16.602,-19.043
0.194,0.059,0.373,-3.784,0.549,-16.907
0.194,0.062,0.379,-3.601,14.526,-15.564
0.189,0.063,0.389,-2.991,14.221,-13.855
0.185,0.066,0.397,-2.502,12.939,-12.329
0.180,0.066,0.410,-2.502,13.916,-10.925
0.175,0.070,0.421,-1.709,14.099,-10.132
0.172,0.078,0.430,-1.587,15.259,-9.460
0.174,0.081,0.426,-2.136,16.968,-8.606
0.181,0.081,0.401,-1.648,16.663,-7.568
0.183,0.079,0.369,-1.099,16.052,-5.493
0.182,0.077,0.358,0.000,13.306,-4.089
0.177,0.078,0.354,0.610,9.644,-2.136
0.167,0.092,0.360,1.587,6.775,-0.916
0.157,0.101,0.378,1.709,3.967,0.122
0.150,0.108,0.401,1.099,2.991,0.244
0.147,0.115,0.416,1.343,2.625,0.366
0.142,0.120,0.434,0.916,3.906,0.122
0.144,0.124,0.439,0.977,4.822,-0.183
0.142,0.131,0.442,1.404,6.836,-0.916
0.142,0.139,0.439,1.770,7.935,-1.099
0.142,0.147,0.430,1.709,9.399,-2.197
0.146,0.155,0.414,1.648,9.766,-2.747
0.149,0.158,0.397,2.197,8.850,-3.540
0.145,0.162,0.382,2.441,8.362,-4.395
0.146,0.161,0.377,2.869,5.981,-5.310
0.141,0.166,0.384,2.747,3.174,-6.104
0.143,0.169,0.398,2.075,0.244,-6.836
0.145,0.175,0.427,0.732,-1.099,-7.874
0.151,0.176,0.451,-1.099,-2.686,-8.484
0.154,0.178,0.470,-3.479,-1.099,-9.766
0.156,0.179,0.481,-5.615,-0.122,-10.254
0.157,0.178,0.486,-7.141,1.831,-11.780
0.157,0.173,0.487,-8.789,2.563,-13.184
0.157,0.172,0.484,-9.888,4.333,-14.526
0.157,0.170,0.483,-11.108,5.310,-15.930
0.159,0.167,0.483,-12.146,6.592,-17.944
0.162,0.158,0.479,-13.123,7.446,-19.470
0.168,0.148,0.467,-13.733,8.545,-20.447
0.171,0.135,0.451,-14.282,8.057,-21.179
0.182,0.121,0.442,-14.709,7.874,-21.362
0.188,0.104,0.438,-14.465,6.226,-20.630
0.197,0.095,0.440,-13.794,5.371,-20.142
0.198,0.088,0.445,-14.343,4.028,-19.043
0.195,0.078,0.456,-14.771,2.808,-17.761
0.195,0.073,0.469,-15.869,3.357,-16.907
0.195,0.062,0.482,-16.479,3.662,-15.564
0.196,0.054,0.491,-17.273,5.005,-14.282
0.199,0.048,0.490,-17.090,6.531,-12.329
0.201,0.040,0.481,-16.357,7.874,-10.803
0.204,0.038,0.470,-15.625,9.827,-8.240
0.205,0.037,0.449,-13.672,10.193,-6.104
0.195,0.036,0.430,-11.292,10.681,-3.845
0.188,0.038,0.421,-8.850,9.766,-1.404
0.182,0.045,0.417,-5.798,8.850,15.198
0.177,0.054,0.426,-3.357,6.714,0.854
0.172,0.063,0.435,-1.709,5.432,1.343
0.167,0.073,0.450,-1.221,3.906,2.014
0.167,0.081,0.465,-2.136,3.235,3.052
0.165,0.085,0.475,-3.052,2.136,4.211
0.166,0.080,0.487,-4.700,1.892,5.432
0.167,0.082,0.499,-6.287,2.319,7.019
0.162,0.083,0.504,-7.263,3.662,7.874
0.156,0.087,0.503,-7.507,3.906,8.789
0.154,0.087,0.504,-8.911,5.554,8.911
0.151,0.091,0.500,-8.850,6.592,9.216
0.150,0.094,0.495,-8.484,7.751,8.728
0.153,0.097,0.495,-9.277,7.690,8.850
0.152,0.099,0.490,-9.033,8.057,9.216
0.150,0.101,0.489,-9.094,8.301,8.667
0.148,0.099,0.490,-8.972,9.338,8.911
0.148,0.103,0.490,-9.399,8.728,8.423
0.151,0.099,0.490,-9.460,8.484,7.874
0.151,0.100,0.485,-9.216,7.690,7.202
0.155,0.101,0.485,-9.399,8.301,6.897
0.158,0.101,0.487,-10.193,7.690,7.019
0.128,0.102,0.485,-10.620,7.080,7.202
0.158,0.102,0.493,-10.986,6.470,7.385
0.162,0.103,0.498,-11.169,6.470,7.629
0.163,0.102,0.502,-12.146,6.042,7.996
0.165,0.099,0.509,-12.146,6.287,8.545
0.165,0.100,0.513,-11.902,6.714,8.972
0.166,0.100,0.520,-11.902,7.812,9.094
0.163,0.103,0.525,-10.620,9.033,9.094
0.159,0.104,0.533,-11.292,9.827,9.033
0.158,0.106,0.540,-11.108,11.658,8.850
0.159,0.109,0.543,-11.414,12.634,8.118
0.126,0.109,0.549,-11.597,15.015,7.751
0.155,0.109,0.551,-12.024,15.625,6.775
0.154,0.106,0.556,-12.268,17.578,6.470

1.203,0.040,1.494,117.310,-515.869,266.724
1.242,0.091,1.783,114.502,-477.844,266.113
1.259,0.180,1.954,111.633,-441.406,267.029
1.256,0.271,2.105,94.788,-392.944,267.700
1.201,0.377,2.167,106.689,-353.760,266.357
1.181,0.501,2.221,102.600,-310.303,260.132
1.102,0.634,2.217,96.924,-281.860,250.305
1.007,0.756,2.232,92.407,-263.062,235.229
0.954,0.859,2.284,84.839,-241.028,218.445
0.913,0.927,2.326,78.552,-206.482,195.496
0.867,0.962,2.365,73.853,-198.364,175.232
0.794,0.974,2.378,73.608,-180.176,151.611
0.734,0.967,2.385,78.735,-162.598,133.789
0.705,0.970,2.423,82.092,-147.827,114.258
0.695,0.978,2.478,86.914,-125.183,98.267
0.670,0.974,2.503,91.309,-104.370,82.581
0.629,0.972,2.504,94.604,-80.994,64.758
0.597,0.967,2.500,96.863,-65.430,51.147
0.594,0.958,2.501,97.107,-48.157,35.950
0.609,0.930,2.515,94.788,-35.583,24.780
0.619,0.892,2.527,90.881,-21.729,15.686
0.625,0.865,2.537,86.121,-3.418,10.437
0.629,0.839,2.538,81.360,27.405,5.981
0.623,0.820,2.524,76.416,32.227,3.662
0.616,0.807,2.503,72.876,49.255,0.916
0.606,0.803,2.468,68.848,70.129,-0.977
0.602,0.813,2.428,62.195,86.670,-2.808
0.587,0.829,2.354,56.885,105.286,-5.188
0.570,0.867,2.327,49.011,119.812,-7.996
0.529,0.908,2.271,41.748,134.766,-13.855
0.494,0.945,2.207,31.799,146.606,-20.813
0.417,1.011,1.965,-7.996,198.853,-67.139
0.409,1.000,1.901,-14.587,212.769,-81.482
0.403,0.983,1.805,-21.118,228.943,-93.994
0.401,0.964,1.715,-23.010,241.272,-110.229
0.396,0.943,1.611,-24.536,256.409,-123.291
0.392,0.929,1.522,-23.682,268.677,-138.306
0.391,0.915,1.423,-20.752,281.250,-150.940
0.395,0.903,1.350,-17.212,290.222,-167.297
0.403,0.884,1.271,-10.071,302.124,-181.580
0.412,0.854,1.206,-3.540,312.195,-197.754
0.413,0.833,1.131,2.563,325.500,-210.754
0.414,0.813,1.063,10.010,336.060,-226.624
0.420,0.800,0.964,30.640,348.022,-238.892
0.434,0.785,0.883,19.653,355.469,-251.221
0.459,0.767,0.765,20.935,363.586,-264.404
0.479,0.740,0.691,20.752,367.310,-274.170
0.496,0.699,0.571,19.531,369.934,-282.104
0.517,0.655,0.517,15.930,371.277,-287.537
0.523,0.616,0.441,10.559,371.643,-291.504
0.521,0.580,0.351,4.456,371.277,-294.617
0.515,0.546,0.281,-0.183,369.080,-297.913
0.502,0.521,0.200,-7.507,365.784,-301.147
0.499,0.487,0.140,-15.076,362.122,-304.260
0.553,0.288,-0.088,-41.321,342.773,-292.175
0.538,0.250,-0.154,-45.837,333.862,-288.330
0.518,0.205,-0.191,-51.025,325.684,-283.691
0.500,0.178,-0.232,-57.068,315.674,-280.090
0.485,0.135,-0.266,-60.791,307.007,-276.245
0.473,0.068,-0.296,-62.805,296.387,-273.987
0.463,0.057,-0.316,-63.660,288.025,-271.667
0.457,0.019,-0.345,-62.866,279.602,-269.531
0.444,-0.025,-0.365,-60.486,272.278,-266.357
0.429,-0.056,-0.404,-57.800,263.184,-263.306
0.405,-0.090,-0.438,-55.237,254.456,-259.033
0.393,-0.115,-0.480,-52.917,243.042,-254.517
0.386,-0.142,-0.525,-49.805,230.835,-248.108
0.371,-0.157,-0.567,-47.180,215.637,-241.638
0.342,-0.170,-0.592,-47.974,187.561,-230.652
0.343,-0.172,-0.622,-47.363,189.270,-224.731
0.341,-0.294,-0.768,-34.058,131.714,-182.068
0.312,-0.314,-0.841,-25.513,114.502,-166.931
0.281,-0.315,-0.864,-12.451,98.206,-155.090
0.246,-0.300,-0.897,0.671,78.796,-143.188
0.222,-0.274,-0.917,16.907,61.768,-134.338
0.202,-0.247,-0.878,31.189,42.297,-126.465
0.156,-0.213,-0.889,49.133,27.344,-121.399
0.163,-0.181,-0.869,63.538,11.536,-116.882
0.158,-0.144,-0.833,76.904,-0.854,-113.525
0.171,-0.120,-0.753,86.548,-13.611,-109.985
0.172,-0.109,-0.726,96.497,-20.813,-106.689
0.180,-0.109,-0.687,102.966,-26.978,-102.295
0.184,-0.102,-0.662,110.107,-29.419,-97.229
0.188,-0.100,-0.672,113.770,-33.752,-90.881
0.181,-0.107,-0.703,119.141,-38.147,-85.510
0.169,-0.116,-0.750,124.390,-48.279,-79.651
0.158,-0.123,-0.782,129.456,-57.739,-73.608
0.155,-0.126,-0.814,131.958,-72.937,-69.275
0.180,-0.132,-0.786,128.113,-133.179,-41.504
0.198,-0.124,-0.767,123.108,-146.545,-32.715
0.218,-0.119,-0.758,115.295,-161.499,-24.414
0.239,-0.122,-0.756,108.521,-174.255,-13.611
0.254,-0.128,-0.768,100.647,-190.796,-4.700
0.264,-0.130,-0.787,96.924,-207.886,5.005
0.270,-0.125,-0.812,94.238,-222.534,12.878
0.281,-0.116,-0.828,93.567,-240.540,20.996
0.299,-0.101,-0.835,95.520,-256.042,26.550
0.322,-0.082,-0.784,97.717,-274.109,32.776
0.348,-0.064,-0.782,100.769,-288.330,37.781
0.376,-0.049,-0.749,101.624,-304.504,43.396
0.397,-0.036,-0.700,103.577,-316.040,48.340
0.429,-0.023,-0.657,105.774,-326.416,54.260
0.446,-0.023,-0.620,107.666,-336.670,58.716
0.473,-0.016,-0.601,109.131,-344.299,63.538
0.494,-0.000,-0.580,112.549,-353.516,67.261
0.621,0.015,-0.466,126.343,-392.822,79.773
0.616,0.006,-0.427,130.188,-400.696,84.778
0.639,-0.004,-0.375,136.169,-407.166,90.088
0.690,-0.007,-0.292,141.113,-414.490,96.619
0.729,-0.006,-0.250,146.362,-419.800,102.722
0.774,-0.003,-0.162,149.170,-425.720,110.840
0.817,-0.009,-0.122,152.344,-430.054,118.530
0.865,-0.017,-0.036,155.945,-432.556,128.723
0.885,-0.021,-0.008,160.950,-434.204,138.062
0.895,-0.014,0.051,165.405,-435.791,150.391
0.893,0.022,0.134,167.908,-436.340,160.889
0.892,0.067,0.217,166.504,-439.514,171.326
0.898,0.152,0.351,161.133,-441.040,178.101
0.925,0.170,0.493,154.846,-442.139,183.228
0.953,0.203,0.686,148.560,-436.646,185.486
0.981,0.245,0.847,143.250,-427.856,187.683
0.994,0.270,1.022,137.085,-408.875,189.575
0.933,0.438,1.439,120.178,-310.730,198.547
0.879,0.551,1.505,113.831,-291.687,194.641
0.830,0.663,1.572,105.774,-272.095,186.951
0.782,0.786,1.603,93.750,-256.714,158.020
0.729,0.854,1.600,84.106,-243.347,154.602
0.707,0.902,1.602,77.698,-233.032,137.573
0.681,0.906,1.617,77.271,-217.529,116.699
0.643,0.961,1.610,78.674,-207.214,96.924
0.604,0.965,1.651,77.087,-199.158,70.374
0.584,0.951,1.684,73.669,-195.007,49.011
0.592,0.919,1.746,71.960,-187.317,24.841
0.616,0.850,1.829,69.153,-176.086,7.202
0.650,0.828,1.893,66.772,-161.499,-9.399
0.667,0.783,1.942,62.805,-142.273,-19.348
0.683,0.734,1.965,57.678,-124.512,-29.114
0.673,0.690,1.974,49.683,-107.300,-34.424
0.652,0.637,1.970,34.363,-93.628,-37.476
0.637,0.582,1.950,2.014,-81.116,-37.842
0.636,0.511,1.921,-6.287,-72.388,-36.316
0.620,0.451,1.889,-27.405,-62.805,-29.846
0.606,0.382,1.848,-52.673,-55.908,-22.095
0.589,0.338,1.786,-73.059,-46.265,-11.292
0.568,0.302,1.713,-96.313,-39.001,-2.075
0.533,0.280,1.627,-112.488,-30.762,7.324
0.500,0.261,1.554,-127.014,-24.902,13.428
0.456,0.243,1.463,-136.353,-18.005,19.104
0.320,0.189,1.128,-136.292,13.184,23.315
0.292,0.182,1.057,-129.150,18.433,21.179
0.255,0.179,0.993,-121.216,23.926,17.456
0.224,0.172,0.927,-112.000,27.283,13.367
0.198,0.164,0.869,-104.675,30.273,8.240
0.182,0.156,0.808,-94.971,31.372,3.052
0.168,0.147,0.763,-85.266,32.349,-3.052
0.164,0.140,0.721,-74.463,31.799,-7.751
0.158,0.133,0.699,-66.101,16.052,-13.550
0.155,0.125,0.687,-56.702,31.128,-17.395
0.157,0.113,0.684,-50.415,46.509,-21.301
0.159,0.097,0.680,-43.945,31.982,-23.132
0.164,0.080,0.678,-39.124,33.264,-24.048
0.168,0.072,0.665,-34.302,35.339,-23.865
0.171,0.063,0.650,-30.823,36.987,-23.071
0.172,0.062,0.629,-29.236,37.720,-22.034
0.171,0.058,0.609,-28.076,38.330,-20.081
0.170,0.056,0.590,-27.344,37.354,-17.944
0.177,0.056,0.567,-27.405,36.987,-15.259
0.184,0.061,0.546,-28.931,35.828,-11.475
0.185,0.066,0.516,-29.968,34.180,-7.690
0.190,0.074,0.490,-31.799,30.823,-3.174
0.157,0.087,0.472,-33.875,27.466,0.061
0.183,0.093,0.466,-34.790,23.865,3.296
0.177,0.106,0.464,-35.522,21.606,5.066
0.177,0.115,0.462,-35.339,20.935,6.897
0.178,0.154,0.460,-34.790,20.142,8.362
0.178,0.139,0.449,-33.691,20.264,9.888
0.180,0.148,0.435,-31.555,19.836,10.376
0.175,0.161,0.424,-29.602,18.921,10.376
0.170,0.173,0.426,-27.649,17.090,9.644
0.165,0.181,0.432,-26.855,15.869,9.155
0.162,0.188,0.448,-27.283,14.587,7.629
0.164,0.191,0.456,-27.100,14.343,6.531
0.166,0.189,0.466,-27.527,14.771,5.554
0.170,0.182,0.473,-27.344,15.625,4.883
0.169,0.176,0.477,-27.222,16.541,4.028
0.170,0.176,0.479,-26.550,18.555,3.784
0.170,0.174,0.478,-25.940,20.386,3.174
0.170,0.177,0.460,-26.428,22.827,2.747
0.171,0.179,0.428,-26.672,23.132,1.587
0.172,0.179,0.385,-25.452,22.034,0.793
0.169,0.171,0.368,-24.170,18.677,0.427
0.163,0.168,0.371,-23.804,14.465,-0.366
0.165,0.166,0.390,-22.278,10.803,-0.732
0.174,0.163,0.480,-18.799,11.108,-2.075
0.176,0.164,0.486,-17.761,12.451,-2.563
0.176,0.167,0.489,-16.479,14.099,-2.930
0.176,0.171,0.495,-16.785,15.198,-4.028
0.175,0.179,0.495,-17.334,15.747,-4.639
0.175,0.181,0.491,-17.944,16.663,-5.615
0.177,0.182,0.483,-19.287,16.785,-6.470
0.176,0.175,0.472,-20.142,16.296,-6.592
0.174,0.168,0.468,-21.423,15.503,-7.324
0.177,0.159,0.468,-22.705,14.587,-7.568
0.177,0.155,0.474,-23.560,13.428,-7.080
0.179,0.152,0.483,-24.170,13.184,-7.263
0.179,0.148,0.489,-25.024,13.367,-6.897
0.180,0.145,0.496,-25.208,14.404,-6.104
0.179,0.141,0.500,-25.391,16.113,-5.981
0.175,0.138,0.501,-25.574,18.005,-6.165
0.171,0.139,0.494,-25.330,20.081,-6.042
0.167,0.137,0.485,-24.780,21.973,-6.287
0.166,0.140,0.464,-23.560,24.048,-6.409
0.167,0.143,0.439,-22.522,25.085,-6.165
0.167,0.146,0.406,-22.217,24.292,-5.432
0.165,0.144,0.378,-22.278,21.790,-5.554
0.162,0.140,0.367,-19.775,17.395,-4.944
0.187,0.134,0.357,-19.165,13.123,-4.639
0.157,0.135,0.357,-19.592,8.423,-4.700
0.153,0.132,0.373,-18.738,5.310,-4.883
0.153,0.133,0.397,-17.761,3.540,-4.700
0.158,0.130,0.422,-16.235,2.930,-4.578
0.158,0.125,0.432,-14.709,3.723,-4.822
0.163,0.117,0.442,-12.451,5.676,-4.822
0.161,0.118,0.442,-10.559,6.897,-4.822
0.163,0.120,0.443,-8.118,8.789,-4.822
0.166,0.125,0.443,-6.653,10.193,-4.517
0.163,0.130,0.443,-5.127,10.681,-5.005
0.166,0.135,0.439,-3.845,11.414,-5.127
0.164,0.139,0.437,-3.052,10.925,-5.066
0.165,0.142,0.437,-2.197,11.047,-5.981
0.167,0.146,0.439,-1.038,10.864,-6.836
0.165,0.150,0.437,-0.305,10.193,-7.568
0.168,0.155,0.442,-1.038,9.033,-8.911
0.169,0.157,0.447,-2.502,7.751,-9.705
0.179,0.154,0.456,-3.784,5.981,-9.399
0.187,0.147,0.468,-7.263,5.188,-8.911
0.192,0.141,0.473,-9.583,4.944,-7.629
0.191,0.131,0.477,-12.573,5.432,-6.287
0.187,0.120,0.480,-13.916,5.798,-4.639
0.182,0.117,0.484,-15.442,6.714,-3.479
0.180,0.111,0.483,-16.479,7.202,-2.808
0.176,0.110,0.482,-17.700,8.423,-2.258
0.175,0.109,0.483,-18.311,9.216,-1.892
0.177,0.107,0.483,-18.738,10.254,-1.221
0.176,0.105,0.482,-18.555,11.780,-0.427
0.175,0.105,0.475,-18.982,11.536,-0.122
0.174,0.104,0.471,-20.630,12.268,0.488
0.175,0.105,0.463,-19.409,11.963,0.671
0.173,0.102,0.454,-19.653,12.024,0.916
0.173,0.103,0.448,-19.714,10.925,1.282
0.173,0.101,0.445,-18.982,9.277,1.648
0.173,0.098,0.448,-17.883,8.667,2.136
0.172,0.099,0.452,-16.602,8.362,2.563
0.172,0.097,0.452,-13.977,8.484,2.808
0.172,0.099,0.453,-11.597,8.667,2.747
0.167,0.100,0.452,-10.071,8.667,2.686
0.168,0.101,0.455,-7.935,8.850,2.502
0.169,0.102,0.458,-5.249,8.850,2.380
0.169,0.099,0.464,-3.784,8.606,2.197
0.171,0.098,0.469,-2.197,8.545,2.502
0.170,0.096,0.481,-0.977,8.362,2.808
0.168,0.096,0.488,-0.305,8.484,2.808
0.167,0.098,0.494,-0.488,8.118,3.357
0.167,0.100,0.502,-0.916,8.301,3.418
0.166,0.096,0.509,-1.404,7.690,3.906
0.163,0.097,0.517,-3.174,8.484,4.517
0.164,0.097,0.519,-4.089,9.155,5.127
0.163,0.096,0.524,-4.883,9.277,5.432
0.159,0.096,0.522,-5.554,10.376,6.287
0.157,0.097,0.520,-6.287,11.230,6.226
0.153,0.100,0.523,-7.202,11.597,6.653
0.150,0.106,0.523,-7.324,12.329,6.042
0.147,0.109,0.526,-8.545,12.695,6.042
0.150,0.109,0.526,-9.094,13.428,5.615
0.147,0.109,0.526,-9.399,14.160,5.432
0.147,0.106,0.528,-10.254,14.954,4.395
0.148,0.107,0.528,-10.559,15.869,4.456
0.147,0.108,0.531,-11.169,16.418,3.906
0.145,0.107,0.532,-11.658,17.639,3.418
0.145,0.104,0.530,-11.353,18.677,2.869
0.144,0.099,0.528,-12.329,19.104,2.136
0.141,0.096,0.528,-12.146,20.325,1.526
0.143,0.093,0.524,-11.169,20.996,1.221
0.145,0.090,0.523,-11.536,22.034,0.977
0.147,0.085,0.520,-10.925,23.010,-0.061
0.151,0.068,0.508,-8.423,24.780,1.160
0.150,0.062,0.509,-7.446,23.987,1.526
0.148,0.060,0.504,-7.996,24.292,2.136
0.150,0.059,0.499,-8.362,23.804,2.991
0.148,0.057,0.499,-7.812,22.461,3.113
0.148,0.050,0.494,-8.240,21.790,4.089
0.146,0.044,0.492,-8.179,21.179,5.615
0.145,0.042,0.489,-8.423,19.775,6.470
0.139,0.041,0.488,-8.179,19.836,7.874
0.134,0.043,0.487,-7.141,18.921,9.155
0.133,0.045,0.484,-6.714,19.104,10.193
0.128,0.047,0.478,-7.080,17.944,11.169
0.095,0.052,0.475,-6.348,18.250,11.780
0.120,0.056,0.469,-4.578,16.418,12.512
0.121,0.092,0.474,-4.089,16.052,13.000

0.962,0.066,1.581,94.604,-487.854,267.456
0.902,0.182,1.761,88.135,-451.050,261.414
0.875,0.290,1.870,81.177,-419.312,250.061
0.868,0.387,1.964,76.477,-380.859,238.403
0.890,0.468,2.036,72.937,-349.854,224.976
0.891,0.527,2.124,69.702,-311.279,210.327
0.873,0.577,2.120,66.345,-281.067,198.547
0.819,0.610,2.107,65.735,-249.756,185.303
0.796,0.661,2.090,67.505,-225.403,173.645
0.737,0.685,2.026,71.167,-205.811,156.494
0.712,0.724,2.026,80.811,-189.270,140.808
0.699,0.779,2.062,89.294,-171.753,121.155
0.686,0.812,2.096,100.037,-152.222,104.736
0.665,0.801,2.115,111.755,-138.489,85.327
0.666,0.811,2.167,139.893,-124.329,71.777
0.678,0.828,2.226,136.353,-112.122,57.556
0.674,0.833,2.307,140.930,-94.055,48.706
0.628,0.851,2.363,140.930,-78.857,41.931
0.623,0.874,2.436,137.024,-60.242,35.156
0.564,0.901,2.442,127.686,-47.424,29.785
0.571,0.926,2.464,117.065,-33.142,23.010
0.563,0.907,2.489,100.464,-22.461,17.395
0.559,0.935,2.506,86.243,-10.681,10.925
0.557,0.926,2.517,67.566,6.287,5.981
0.547,0.905,2.503,51.941,20.935,2.014
0.540,0.890,2.465,37.720,38.818,-0.183
0.535,0.885,2.427,20.447,53.528,-2.258
0.526,0.892,2.371,7.263,70.251,-3.052
0.514,0.907,2.322,-7.812,83.435,-5.493
0.491,0.920,2.266,-20.020,97.107,-9.766
0.428,0.950,2.034,-57.190,146.179,-40.710
0.424,0.939,1.984,-62.744,158.936,-50.110
0.415,0.927,1.924,-66.589,175.110,-61.768
0.414,0.909,1.849,-68.115,189.026,-72.205
0.415,0.890,1.759,-67.505,205.566,-85.266
0.413,0.870,1.710,-65.552,219.971,-97.229
0.407,0.844,1.606,-62.195,235.718,-111.877
0.404,0.814,1.544,-55.481,248.352,-124.817
0.403,0.791,1.481,-48.096,260.132,-139.832
0.398,0.767,1.418,-38.269,274.658,-153.625
0.395,0.740,1.381,-28.259,286.865,-171.204
0.392,0.727,1.348,-15.381,303.650,-187.012
0.400,0.703,1.321,-5.249,317.383,-207.764
0.409,0.685,1.280,6.897,336.426,-224.670
0.433,0.672,1.233,14.343,351.624,-244.263
0.450,0.671,1.159,20.813,368.774,-260.132
0.478,0.663,1.077,25.940,382.385,-277.283
0.499,0.655,0.959,27.832,393.921,-290.466
0.522,0.636,0.857,27.893,399.231,-302.246
0.548,0.615,0.766,26.794,402.893,-313.416
0.560,0.573,0.666,22.766,402.954,-319.092
0.578,0.543,0.568,17.883,402.039,-322.083
0.673,0.424,0.372,-18.982,390.381,-307.800
0.669,0.401,0.322,-29.785,387.146,-301.453
0.645,0.383,0.281,-38.147,382.935,-294.495
0.620,0.360,0.237,-49.500,379.028,-291.138
0.583,0.336,0.202,-59.082,374.634,-289.612
0.563,0.319,0.156,-70.129,368.408,-289.978
0.554,0.299,0.128,-78.308,365.662,-291.199
0.556,0.251,0.095,-88.684,362.549,-293.091
0.559,0.265,0.063,-96.497,360.840,-295.593
0.513,0.251,0.016,-104.797,357.117,-293.396
0.600,0.223,0.002,-109.131,356.873,-293.213
0.612,0.186,-0.045,-112.427,355.469,-294.250
0.618,0.134,-0.080,-113.098,353.088,-293.274
0.605,0.089,-0.123,-113.953,351.196,-290.771
0.557,0.044,-0.170,-115.479,347.656,-285.217
0.527,0.008,-0.218,-115.234,344.482,-281.433
0.552,-0.015,-0.270,-112.427,342.651,-277.588
0.502,-0.233,-0.583,-79.590,315.857,-232.422
0.482,-0.327,-0.612,-76.843,305.786,-216.064
0.522,-0.358,-0.687,-66.956,294.678,-191.223
0.535,-0.395,-0.786,-49.438,278.870,-170.715
0.498,-0.438,-0.854,-32.837,259.155,-147.339
0.454,-0.473,-0.907,-11.353,240.112,-129.395
0.405,-0.465,-0.964,6.531,215.393,-109.436
0.370,-0.402,-0.936,26.855,193.481,-93.506
0.340,-0.327,-0.914,40.833,169.067,-77.576
0.320,-0.243,-0.872,53.040,151.184,-67.627
0.299,-0.186,-0.835,60.303,132.324,-58.411
0.285,-0.130,-0.801,64.453,119.202,-52.002
0.271,-0.084,-0.785,64.270,104.370,-46.509
0.262,-0.040,-0.784,61.829,91.614,-42.480
0.257,-0.016,-0.785,55.969,75.317,-37.964
0.256,0.006,-0.788,46.753,61.523,-34.668
0.248,0.002,-0.797,40.955,32.349,-31.433
0.238,-0.011,-0.817,35.400,33.508,-28.198
0.223,-0.029,-0.846,32.227,21.484,-24.414
0.226,-0.046,-1.016,40.710,-46.997,-11.597
0.231,-0.041,-1.038,46.448,-65.796,-8.240
0.243,-0.041,-1.044,51.147,-88.928,-4.639
0.256,-0.037,-1.033,57.129,-108.704,-1.770
0.263,-0.038,-1.015,64.087,-129.761,1.831
0.268,-0.047,-0.991,70.557,-147.888,4.822
0.281,-0.051,-0.968,73.669,-168.091,9.338
0.302,-0.058,-0.945,76.782,-184.998,13.611
0.340,-0.071,-0.937,80.688,-203.430,21.240
0.405,-0.080,-0.947,86.548,-218.384,45.166
0.409,-0.083,-0.958,92.102,-236.511,40.710
0.431,-0.083,-0.968,100.159,-252.808,50.842
0.457,-0.084,-0.971,107.361,-273.804,62.988
0.478,-0.084,-0.956,118.774,-291.382,72.998
0.511,-0.087,-0.946,128.967,-312.073,85.815
0.584,-0.087,-0.919,144.348,-328.979,96.924
0.609,-0.061,-0.846,157.104,-348.694,110.229
0.679,-0.035,-0.823,169.861,-364.563,121.216
0.691,-0.016,-0.768,178.467,-382.019,135.010
0.761,0.167,-0.602,173.889,-451.660,169.983
0.785,0.200,-0.567,163.330,-470.520,174.561
0.822,0.223,-0.477,151.611,-491.028,178.772
0.850,0.227,-0.427,136.108,-507.812,182.800
0.882,0.221,-0.366,121.826,-524.109,188.171
0.896,0.217,-0.307,103.638,-536.316,193.481
0.891,0.223,-0.276,86.609,-548.523,198.181
0.886,0.238,-0.248,64.758,-561.218,199.646
0.930,0.245,-0.227,46.997,-577.087,198.547
1.012,0.234,-0.184,29.785,-591.980,197.205
1.116,0.214,-0.124,21.545,-605.591,195.068
1.178,0.126,-0.041,17.151,-621.704,193.359
1.223,0.065,0.057,20.386,-632.019,193.726
1.249,-0.007,0.239,32.715,-640.259,196.045
1.272,-0.067,0.434,48.279,-638.733,200.989
1.288,-0.078,0.710,69.336,-622.925,208.374
1.295,-0.058,0.951,86.060,-598.022,217.957
1.269,0.046,1.288,98.572,-550.964,225.403
1.197,0.170,1.515,106.445,-500.244,230.469
0.796,0.633,1.536,90.027,-289.734,191.101
0.734,0.686,1.402,64.270,-263.733,173.218
0.708,0.687,1.293,68.115,-252.625,153.992
0.679,0.636,1.201,60.425,-249.023,141.052
0.698,0.590,1.198,53.162,-246.399,129.395
0.648,0.531,1.148,49.744,-250.244,116.089
0.600,0.514,1.193,52.307,-256.775,103.210
0.568,0.520,1.288,54.626,-256.836,82.581
0.544,0.508,1.414,55.542,-251.038,64.087
0.516,0.489,1.499,56.458,-242.920,43.335
0.520,0.442,1.573,58.044,-231.018,26.978
0.543,0.444,1.608,59.265,-220.947,10.376
0.567,0.417,1.631,57.739,-209.900,-0.610
0.591,0.383,1.639,54.382,-202.576,-11.414
0.609,0.354,1.645,49.011,-195.740,-17.029
0.623,0.301,1.658,39.612,-191.528,-21.057
0.634,0.255,1.709,30.762,-185.791,-23.560
0.650,0.200,1.771,21.118,-179.749,-24.780
0.665,0.164,1.850,13.733,-168.274,-24.109
0.679,0.125,1.889,5.859,-156.555,-22.339
0.685,0.097,1.909,-0.122,-139.526,-18.127
0.682,0.083,1.906,-7.202,-124.695,-13.184
0.666,0.085,1.845,-13.489,-107.239,-6.226
0.639,0.096,1.828,-20.630,-94.238,15.381
0.596,0.111,1.755,-28.381,-81.482,6.042
0.557,0.133,1.730,-36.682,-72.937,9.949
0.517,0.146,1.656,-43.030,-64.026,12.634
0.408,0.164,1.418,-58.960,-31.616,17.761
0.350,0.156,1.371,-56.824,-25.391,17.395
0.338,0.149,1.282,-54.565,-18.311,15.869
0.312,0.146,1.239,-51.025,-13.794,13.367
0.284,0.151,1.171,-46.082,-7.751,9.583
0.262,0.160,1.080,-38.574,-5.188,5.493
0.238,0.163,1.003,-31.006,-4.211,-0.061
0.218,0.160,0.939,-20.386,-5.371,-4.639
0.205,0.154,0.913,-10.803,-5.981,-9.644
0.206,0.186,0.912,-2.197,-7.446,-14.526
0.210,0.172,0.926,2.747,-6.042,-18.921
0.215,0.181,0.928,7.263,-4.517,-22.705
0.224,0.171,0.923,9.644,-2.319,-26.001
0.233,0.160,0.916,11.841,1.526,-26.367
0.245,0.149,0.904,12.146,4.700,-26.001
0.253,0.146,0.879,11.902,10.315,-24.902
0.254,0.146,0.851,10.376,13.245,-23.621
0.257,0.139,0.814,8.423,17.273,-20.691
0.264,0.136,0.790,4.700,18.372,-17.639
0.267,0.142,0.764,0.366,21.851,-13.733
0.269,0.154,0.726,-3.784,22.949,-11.108
0.260,0.167,0.700,-6.714,23.987,-9.033
0.249,0.182,0.673,-10.742,23.499,-8.423
0.244,0.188,0.660,-13.184,23.926,-7.568
0.246,0.195,0.643,-16.418,25.635,-7.874
0.248,0.201,0.631,-18.005,26.794,-7.812
0.248,0.200,0.616,-20.020,29.724,-8.118
0.248,0.197,0.591,-21.790,31.799,-7.996
0.247,0.196,0.562,-22.461,34.241,-8.545
0.241,0.188,0.533,-23.376,36.133,-9.460
0.237,0.180,0.503,-23.376,36.316,-9.827
0.230,0.176,0.483,-22.888,36.316,-10.681
0.227,0.168,0.467,-22.766,36.133,-11.475
0.226,0.169,0.457,-21.667,35.950,-12.695
0.225,0.167,0.436,-21.301,36.255,-13.245
0.220,0.161,0.421,-19.836,36.072,-14.221
0.217,0.156,0.401,-18.005,35.706,-15.320
0.212,0.148,0.387,-15.564,34.851,-16.357
0.211,0.140,0.378,-12.573,32.715,-18.066
0.210,0.134,0.370,-9.216,32.837,-19.348
0.217,0.133,0.362,-6.348,31.311,-20.020
0.215,0.132,0.357,-3.235,30.640,-20.935
0.213,0.128,0.357,-0.183,28.809,-22.400
0.219,0.120,0.359,1.770,28.259,-23.071
0.217,0.118,0.363,1.770,26.733,-21.423
0.222,0.109,0.378,1.038,23.560,-18.188
0.225,0.114,0.373,-1.282,22.827,-15.503
0.227,0.110,0.368,-3.174,22.095,-12.085
0.227,0.111,0.360,-5.493,20.264,-9.338
0.224,0.112,0.349,-6.470,19.348,-6.165
0.220,0.116,0.335,-7.263,16.541,-3.906
0.214,0.120,0.335,-7.812,15.259,-2.014
0.209,0.124,0.338,-5.859,12.939,-0.854
0.205,0.132,0.350,-3.906,12.817,0.244
0.200,0.142,0.363,-2.563,12.268,0.793
0.195,0.158,0.369,-0.427,12.512,1.099
0.191,0.173,0.376,0.183,12.146,1.648
0.189,0.193,0.384,-0.244,11.414,0.671
0.191,0.209,0.389,-0.671,10.681,-0.610
0.190,0.221,0.395,-1.892,9.521,-1.526
0.183,0.224,0.404,-2.747,8.118,-3.418
0.185,0.226,0.423,-3.540,8.850,-4.578
0.179,0.228,0.433,-4.761,8.606,-6.165
0.177,0.231,0.447,-5.798,10.132,-8.118
0.173,0.233,0.455,-5.920,10.803,-11.047
0.174,0.233,0.464,-6.226,13.550,-13.367
0.176,0.235,0.473,-7.385,13.733,-15.869
0.181,0.230,0.478,-7.996,16.479,-17.883
0.217,0.229,0.476,-9.399,17.578,-19.348
0.196,0.222,0.467,-11.414,19.775,-20.203
0.200,0.217,0.450,-14.282,19.775,-20.569
0.203,0.207,0.425,-16.235,19.775,-20.874
0.203,0.194,0.404,-17.334,17.029,-21.057
0.203,0.183,0.397,-17.700,14.893,-21.240
0.204,0.171,0.404,-17.334,10.681,-21.423
0.207,0.168,0.417,-16.113,9.521,-21.729
0.207,0.160,0.440,-16.174,9.155,-21.545
0.213,0.160,0.454,-15.076,10.315,-21.484
0.214,0.156,0.466,-15.381,12.329,-21.118
0.217,0.155,0.466,-16.418,13.367,-20.142
0.215,0.153,0.455,-17.334,15.442,-18.921
0.209,0.153,0.442,-18.066,15.198,-17.212
0.204,0.145,0.424,-18.799,14.771,-16.113
0.194,0.138,0.409,-19.165,13.000,-14.893
0.188,0.133,0.401,-18.494,12.207,-14.465
0.181,0.126,0.396,-18.005,10.132,-14.282
0.180,0.120,0.398,-16.541,9.827,-13.611
0.178,0.114,0.399,-14.404,8.606,-13.428
0.175,0.110,0.400,-12.390,8.850,-13.367
0.175,0.109,0.404,-10.620,9.155,-13.306
0.176,0.109,0.407,-8.484,9.277,-12.329
0.174,0.112,0.415,-7.385,9.888,-11.780
0.174,0.114,0.415,-7.446,8.667,-11.230
0.176,0.117,0.412,-8.240,8.240,-10.376
0.177,0.114,0.410,-8.911,6.531,-9.705
0.184,0.114,0.408,-9.216,5.737,-8.789
0.187,0.109,0.407,-8.972,4.395,-7.935
0.189,0.109,0.411,-8.301,3.845,-6.897
0.190,0.108,0.415,-7.080,4.211,-6.165
0.189,0.112,0.425,-5.920,2.930,-5.859
0.187,0.120,0.432,-4.272,3.601,-5.493
0.188,0.126,0.441,-2.502,3.540,-5.859
0.191,0.131,0.446,-1.526,3.967,-6.470
0.197,0.137,0.454,-1.953,4.639,-6.042
0.200,0.140,0.451,-1.221,4.028,-5.554
0.205,0.139,0.448,-0.305,4.639,-4.822
0.208,0.143,0.452,-0.122,4.333,-4.211
0.208,0.143,0.455,0.061,4.028,-4.089
0.206,0.144,0.464,1.221,4.395,-3.296
0.201,0.145,0.500,1.160,4.883,-3.296
0.194,0.147,0.479,1.831,5.005,-3.296
0.191,0.151,0.484,2.502,5.615,-3.906
0.190,0.184,0.493,2.441,7.141,-4.639
0.191,0.157,0.499,2.014,8.606,-4.883
0.195,0.157,0.502,1.892,9.583,-6.104
0.196,0.162,0.503,0.854,11.292,-6.836
0.195,0.166,0.498,0.977,12.024,-7.629
0.195,0.165,0.489,-0.122,12.939,-8.789
0.197,0.162,0.480,-1.953,12.817,-9.949
0.197,0.154,0.477,-3.113,10.681,-10.681
0.203,0.148,0.477,-3.174,9.949,-10.864
0.205,0.141,0.483,-4.028,9.399,-10.925
0.208,0.138,0.491,-4.211,9.705,-10.498
0.212,0.125,0.493,-4.272,14.771,-9.888
0.210,0.120,0.484,-3.418,15.320,-9.338
0.207,0.115,0.479,-3.235,16.418,-7.690
0.203,0.115,0.466,-1.831,15.930,-7.385
0.197,0.114,0.461,-1.038,15.686,-6.897
0.191,0.113,0.453,-0.610,15.686,-6.348
0.186,0.117,0.453,-0.549,14.526,-6.653
0.185,0.117,0.450,-0.916,12.329,-6.409
0.184,0.114,0.455,-1.465,10.925,-5.432
0.188,0.115,0.460,-2.380,8.850,-4.822
0.190,0.114,0.468,-3.052,8.606,-3.967
0.189,0.111,0.479,-3.601,7.996,-2.869
0.190,0.109,0.487,-4.089,8.423,-2.991
0.187,0.108,0.494,-4.517,8.789,-2.075
0.183,0.108,0.500,-5.249,10.132,-1.526
0.181,0.106,0.505,-5.249,11.353,-1.038
0.182,0.106,0.504,-5.676,12.329,-0.793
0.182,0.106,0.504,-6.592,13.916,-0.061
0.180,0.104,0.506,-6.958,13.672,-0.061
0.180,0.105,0.505,-6.775,14.709,-0.427
0.182,0.103,0.510,-7.690,14.221,-0.366
0.184,0.102,0.515,-8.728,14.404,-0.427
0.187,0.103,0.517,-9.338,14.221,-0.183
0.188,0.100,0.519,-10.315,13.855,0.671

1.120,0.206,1.336,132.019,-362.305,288.269
1.076,0.363,1.418,136.292,-368.164,284.302
1.028,0.498,1.487,139.709,-363.403,273.804
1.018,0.622,1.616,144.043,-358.337,260.620
1.031,0.742,1.766,148.071,-349.243,243.652
1.040,0.838,1.945,170.776,-332.703,229.675
1.052,0.947,2.069,163.879,-312.012,217.163
1.051,1.026,2.179,168.884,-280.823,205.017
1.028,1.113,2.188,175.903,-254.150,194.092
0.989,1.175,2.224,181.030,-223.999,179.077
0.938,1.250,2.252,185.364,-201.965,165.405
0.865,1.323,2.268,186.035,-187.073,146.851
0.823,1.434,2.321,183.655,-170.715,130.432
0.784,1.487,2.381,178.467,-142.029,109.192
0.759,1.535,2.447,168.518,-138.184,90.515
0.739,1.562,2.489,159.607,-120.911,68.787
0.720,1.557,2.518,150.574,-95.764,52.795
0.694,1.560,2.534,140.076,-72.876,36.072
0.676,1.566,2.522,129.883,-44.556,24.536
0.625,1.584,2.495,113.586,-23.987,13.428
0.634,1.607,2.466,97.229,-3.052,1.221
0.604,1.634,2.422,75.500,11.414,-8.972
0.578,1.642,2.384,55.420,24.719,-21.118
0.537,1.522,2.220,-30.884,74.524,-65.735
0.525,1.445,2.191,-50.598,90.881,-72.571
0.515,1.400,2.119,-65.125,109.741,-79.163
0.502,1.350,2.010,-80.811,125.244,-85.632
0.490,1.312,1.911,-91.797,137.634,-93.933
0.477,1.273,1.777,-100.708,150.574,-101.746
0.463,1.220,1.680,-105.896,158.936,-112.366
0.457,1.133,1.573,-108.582,168.396,-120.850
0.450,1.097,1.489,-109.375,175.049,-130.981
0.444,1.011,1.409,-107.117,183.533,-139.648
0.437,0.985,1.352,-104.675,190.308,-149.902
0.430,0.940,1.298,-100.769,198.547,-158.630
0.417,0.907,1.263,-95.947,205.872,-170.105
0.411,0.890,1.234,-91.919,215.027,-180.603
0.382,0.872,1.203,-87.280,221.130,-192.993
0.398,0.875,1.222,-82.520,235.046,-206.421
0.417,0.838,1.218,-78.552,251.099,-227.600
0.386,0.781,1.153,-73.120,270.508,-243.164
0.356,0.749,1.085,-63.049,280.396,-255.493
0.474,0.727,0.911,-38.452,315.125,-301.758
0.495,0.700,0.870,-37.537,326.477,-308.960
0.514,0.669,0.829,-36.682,335.754,-316.467
0.555,0.638,0.774,-36.926,344.910,-323.669
0.602,0.592,0.716,-36.682,353.271,-343.689
0.645,0.538,0.654,-36.621,360.901,-331.421
0.664,0.470,0.574,-38.269,366.333,-331.299
0.672,0.434,0.483,-39.734,371.521,-330.444
0.676,0.408,0.442,-42.664,373.169,-330.505
0.639,0.361,0.385,-46.326,374.023,-330.383
0.603,0.306,0.339,-50.232,372.437,-329.224
0.576,0.272,0.314,-54.260,370.544,-328.674
0.566,0.247,0.283,-60.547,369.446,-328.979
0.555,0.232,0.251,-65.369,369.019,-330.200
0.550,0.221,0.202,-70.007,367.187,-331.116
0.552,0.208,0.170,-72.815,365.479,-332.520
0.560,0.182,0.137,-75.195,364.319,-333.374
0.557,0.141,0.101,-76.111,363.098,-333.801
0.529,0.102,0.037,-76.538,359.558,-329.285
0.526,-0.029,-0.190,-72.632,337.891,-307.739
0.513,-0.060,-0.240,-71.350,329.773,-298.767
0.497,-0.098,-0.288,-68.054,320.740,-290.710
0.478,-0.150,-0.324,-64.148,297.241,-280.457
0.458,-0.194,-0.363,-60.120,303.772,-271.240
0.432,-0.234,-0.400,-54.993,281.799,-258.118
0.423,-0.255,-0.446,-49.194,287.354,-245.972
0.444,-0.269,-0.524,-44.434,276.306,-231.628
0.429,-0.297,-0.555,-36.804,265.808,-219.604
0.368,-0.316,-0.574,-32.654,253.723,-205.994
0.371,-0.353,-0.656,-24.719,239.380,-191.895
0.361,-0.361,-0.724,-13.672,221.497,-174.866
0.336,-0.381,-0.785,0.610,204.224,-160.950
0.293,-0.404,-0.817,13.916,182.861,-145.752
0.265,-0.406,-0.831,29.968,164.856,-133.667
0.197,-0.267,-0.778,69.580,92.834,-86.792
0.183,-0.252,-0.760,74.036,75.928,-78.003
0.169,-0.224,-0.744,78.064,62.866,-72.083
0.164,-0.198,-0.731,78.613,48.401,-65.674
0.160,-0.168,-0.728,77.209,35.522,-60.669
0.161,-0.151,-0.725,73.730,19.409,-55.908
0.165,-0.142,-0.724,67.261,5.554,-51.086
0.173,-0.141,-0.720,58.533,-12.878,-44.983
0.183,-0.145,-0.716,49.500,-26.917,-39.124
0.188,-0.149,-0.719,42.297,-44.739,-30.945
0.197,-0.156,-0.722,32.104,-59.204,-24.536
0.211,-0.161,-0.727,24.719,-77.454,-16.174
0.211,-0.159,-0.733,15.747,-91.675,-9.399
0.206,-0.160,-0.753,7.812,-110.535,-0.732
0.208,-0.143,-0.775,0.854,-125.488,6.897
0.210,-0.130,-0.806,-3.723,-145.569,12.329
0.223,-0.107,-0.830,-6.104,-161.743,17.883
0.232,-0.097,-0.853,-5.554,-183.533,21.973
0.252,-0.091,-0.861,-0.366,-199.463,27.222
0.268,-0.093,-0.853,8.301,-219.604,31.128
0.289,-0.099,-0.827,16.785,-233.582,36.682
0.307,-0.103,-0.779,28.503,-248.901,41.443
0.337,-0.110,-0.735,37.537,-257.812,47.424
0.433,-0.071,-0.634,84.351,-276.428,78.430
0.445,-0.057,-0.634,94.971,-281.494,85.938
0.450,-0.049,-0.638,103.027,-286.682,94.482
0.454,-0.030,-0.636,111.938,-294.495,100.586
0.464,-0.003,-0.636,118.286,-301.819,107.788
0.477,0.021,-0.641,125.061,-310.974,112.488
0.500,0.045,-0.638,128.540,-320.557,117.432
0.521,0.057,-0.628,130.798,-331.970,122.009
0.547,0.060,-0.617,130.493,-343.140,128.357
0.582,0.064,-0.598,128.662,-357.727,133.911
0.614,0.079,-0.574,123.657,-371.033,155.151
0.633,0.072,-0.536,118.591,-386.719,148.437
0.651,0.096,-0.503,108.398,-400.085,155.334
0.661,0.122,-0.476,97.168,-415.222,160.583
0.673,0.150,-0.460,80.933,-429.138,164.062
0.695,0.166,-0.450,65.735,-446.289,167.419
0.750,0.183,-0.438,46.997,-461.060,169.983
0.933,0.121,-0.286,-12.451,-538.818,172.546
0.954,0.069,-0.215,-18.372,-557.678,172.119
1.007,-0.000,-0.146,-18.127,-569.336,173.706
1.064,-0.060,-0.056,-9.033,-577.820,176.636
1.084,-0.133,0.037,12.756,-579.468,179.993
1.075,-0.158,0.196,36.804,-576.538,184.570
1.006,-0.136,0.380,69.336,-568.176,203.003
0.984,-0.076,0.637,93.689,-550.598,187.073
0.951,0.017,0.925,115.784,-527.771,183.105
0.932,0.100,1.219,127.930,-489.746,175.415
0.927,0.202,1.403,138.123,-449.158,168.335
0.921,0.288,1.488,141.052,-391.479,158.142
0.909,0.397,1.503,141.846,-361.450,149.475
0.870,0.454,1.511,140.503,-316.040,137.268
0.847,0.534,1.558,135.010,-304.382,125.549
0.825,0.606,1.581,125.183,-287.720,108.826
0.791,0.657,1.605,115.540,-279.053,93.567
0.789,0.688,1.664,104.980,-273.560,73.853
0.800,0.692,1.748,79.895,-261.902,57.373
0.756,0.521,1.838,79.651,-200.439,-2.380
0.745,0.505,1.851,80.627,-189.636,-12.451
0.735,0.496,1.876,77.942,-179.138,-23.132
0.736,0.499,1.902,69.336,-171.509,-31.494
0.742,0.485,1.943,58.289,-163.635,-39.063
0.752,0.446,1.996,44.189,-157.227,-42.175
0.763,0.409,2.048,30.701,-147.522,-42.297
0.764,0.358,2.101,14.771,-136.108,-39.795
0.752,0.313,2.156,0.366,-119.446,-34.180
0.733,0.268,2.109,-16.968,-103.088,-27.649
0.707,0.236,2.035,-31.128,-83.618,-20.447
0.669,0.208,1.983,-46.631,-69.275,-14.648
0.616,0.187,1.902,-58.167,-56.458,-6.836
0.572,0.176,1.804,-72.144,-47.546,-1.343
0.524,0.169,1.724,-82.581,-41.809,5.005
0.493,0.161,1.649,-94.360,-34.973,9.888
0.453,0.158,1.594,-103.088,-29.846,14.954
0.418,0.165,1.534,-109.375,-23.132,17.944
0.375,0.171,1.480,-112.854,-15.625,19.531
0.344,0.179,1.411,-114.563,-5.981,20.081
0.321,0.182,1.333,-113.342,2.869,19.226
0.295,0.184,1.218,-109.497,11.719,17.822
0.270,0.185,1.120,-103.882,16.357,14.771
0.246,0.180,1.011,-95.398,20.447,11.536
0.218,0.176,0.934,-84.473,21.301,7.629
0.197,0.180,0.863,-74.890,21.240,1.953
0.186,0.182,0.824,-63.110,20.142,-2.441
0.180,0.182,0.803,-52.856,19.348,-7.751
0.176,0.178,0.793,-43.457,19.653,-11.780
0.183,0.169,0.783,-37.292,21.667,-14.221
0.185,0.137,0.698,-22.888,27.527,-15.625
0.179,0.127,0.672,-21.484,27.954,-15.320
0.172,0.121,0.648,-21.362,28.442,-14.893
0.169,0.115,0.617,-21.057,28.015,-14.282
0.168,0.113,0.566,-21.057,28.320,-13.489
0.174,0.108,0.572,-21.118,27.588,-11.963
0.178,0.102,0.552,-20.691,26.978,-10.437
0.181,0.095,0.517,-20.325,26.428,-8.911
0.179,0.094,0.495,-19.836,24.536,-6.653
0.175,0.124,0.472,-17.944,23.437,-5.127
0.171,0.100,0.463,-17.029,20.874,-4.211
0.167,0.107,0.458,-15.564,19.104,-3.723
0.166,0.116,0.458,-13.306,17.456,-3.601
0.167,0.120,0.461,-12.878,16.663,-3.845
0.171,0.124,0.464,-12.024,16.357,-3.601
0.175,0.126,0.461,-11.414,15.869,-3.845
0.181,0.127,0.458,-10.315,16.846,-4.028
0.187,0.129,0.450,-8.606,17.273,-3.418
0.190,0.135,0.442,-7.324,17.761,-3.235
0.192,0.143,0.434,-7.263,17.639,-3.357
0.192,0.149,0.429,-5.798,16.907,-3.418
0.193,0.154,0.424,-4.639,15.564,-3.418
0.196,0.159,0.422,-4.578,14.404,-3.906
0.198,0.160,0.424,-4.028,12.634,-4.395
0.207,0.161,0.432,-3.723,11.780,-5.066
0.209,0.155,0.440,-3.357,10.803,-5.920
0.209,0.155,0.447,-2.808,12.207,-5.798
0.211,0.157,0.446,-1.953,13.367,-5.066
0.201,0.158,0.441,-1.465,14.099,-5.249
0.197,0.162,0.435,-1.465,15.015,-5.066
0.186,0.166,0.430,-1.526,13.794,-5.249
0.186,0.176,0.437,-1.160,13.428,-6.104
0.190,0.188,0.448,-1.099,12.146,-7.568
0.179,0.191,0.445,-2.197,11.292,-7.812
0.185,0.206,0.457,-4.333,9.766,-7.996
0.202,0.209,0.469,-7.141,8.972,-9.155
0.204,0.204,0.478,-9.094,9.033,-9.644
0.206,0.196,0.478,-11.475,9.277,-9.460
0.203,0.195,0.484,-12.817,10.193,-9.583
0.202,0.192,0.480,-13.672,11.414,-9.583
0.199,0.187,0.477,-15.503,12.634,-9.949
0.194,0.184,0.465,-16.052,14.160,-10.864
0.194,0.178,0.454,-15.503,15.015,-11.414
0.196,0.171,0.439,-15.686,16.235,-12.024
0.198,0.164,0.421,-15.198,16.357,-12.695
0.196,0.161,0.399,-14.282,15.076,-13.000
0.194,0.158,0.385,-14.343,13.184,-13.733
0.193,0.158,0.380,-13.672,9.521,-13.977
0.196,0.153,0.387,-12.695,6.775,-13.855
0.197,0.148,0.411,-12.756,4.211,-13.184
0.191,0.141,0.463,-12.817,9.338,-10.986
0.189,0.143,0.457,-13.489,10.986,-10.742
0.190,0.149,0.450,-13.489,13.245,-10.498
0.188,0.147,0.435,-13.489,14.160,-10.681
0.183,0.148,0.411,-13.062,14.221,-10.437
0.182,0.147,0.393,-12.146,12.512,-11.169
0.177,0.145,0.378,-10.986,9.766,-11.719
0.171,0.146,0.378,-10.986,7.385,-11.719
0.171,0.144,0.388,-11.047,3.601,-12.207
0.176,0.141,0.400,-11.353,1.709,-12.085
0.183,0.138,0.417,-11.902,0.244,-11.536
0.191,0.129,0.428,-12.390,-0.366,-11.414
0.187,0.122,0.437,-12.573,0.488,-10.864
0.187,0.117,0.440,-12.939,1.221,-10.193
0.184,0.116,0.446,-12.756,2.136,-9.644
0.183,0.116,0.449,-12.878,2.808,-9.583
0.182,0.113,0.449,-12.268,4.272,-9.338
0.186,0.111,0.448,-12.451,4.456,-9.460
0.191,0.106,0.443,-12.817,6.042,-8.972
0.197,0.102,0.432,-12.146,6.592,-8.057
0.200,0.098,0.417,-10.681,6.470,-7.324
0.200,0.098,0.403,-9.338,5.554,-6.653
0.200,0.101,0.402,-8.301,3.662,-5.676
0.198,0.105,0.405,-6.897,0.671,-5.188
0.198,0.111,0.421,-7.080,-2.136,-4.333
0.197,0.117,0.442,-7.263,-3.418,-3.662
