aX,aY,aZ,gX,gY,gZ
0.926,-1.525,0.161,-55.542,-20.996,-307.983
0.941,-1.670,0.168,-54.199,-26.550,-293.640
0.955,-1.780,0.176,-51.025,-30.151,-273.193
0.967,-1.883,0.191,-44.678,-33.569,-254.883
0.970,-1.949,0.209,-37.170,-36.011,-231.323
0.974,-2.001,0.240,-27.100,-36.865,-210.693
0.969,-2.029,0.273,-18.982,-37.537,-185.669
0.962,-2.042,0.309,-10.071,-37.109,-165.222
0.955,-2.047,0.351,-3.296,-36.560,-140.564
0.952,-2.049,0.385,3.052,-34.485,-120.239
0.941,-2.040,0.421,7.080,-32.959,-95.642
0.929,-2.025,0.443,11.841,-28.687,-75.500
0.909,-2.013,0.467,16.113,-24.109,-51.514
0.885,-1.992,0.476,23.132,-18.188,-17.212
0.860,-1.966,0.485,45.898,-11.230,-11.292
0.835,-1.925,0.485,39.917,-4.211,6.348
0.810,-1.884,0.482,49.377,4.150,25.757
0.789,-1.843,0.466,60.791,12.024,41.748
0.755,-1.807,0.446,70.679,19.897,59.998
0.725,-1.747,0.414,84.473,27.039,74.463
0.688,-1.688,0.386,95.032,32.288,90.393
0.661,-1.595,0.354,107.483,39.001,102.844
0.632,-1.545,0.325,115.906,43.457,116.943
0.604,-1.443,0.289,123.291,47.485,126.892
0.514,-1.179,0.174,140.808,50.293,163.635
0.496,-1.102,0.152,141.541,48.706,171.936
0.484,-1.045,0.133,141.785,46.021,178.101
0.474,-0.986,0.121,142.029,43.335,185.669
0.468,-0.946,0.105,139.954,39.185,191.650
0.458,-0.898,0.093,137.573,35.461,198.547
0.454,-0.861,0.087,135.071,30.151,205.078
0.454,-0.825,0.087,131.165,26.245,211.426
0.456,-0.799,0.089,128.906,21.790,219.604
0.467,-0.762,0.101,126.221,19.470,227.051
0.481,-0.734,0.110,123.840,17.456,236.572
0.488,-0.705,0.109,121.521,16.174,243.896
0.495,-0.685,0.103,120.544,0.305,253.479
0.499,-0.656,0.102,120.300,14.954,261.963
0.497,-0.615,0.099,120.667,14.648,270.935
0.476,-0.591,0.078,119.690,13.428,279.480
0.471,-0.540,0.063,119.690,12.634,288.269
0.465,-0.506,0.033,119.568,9.521,295.105
0.452,-0.453,-0.002,121.094,6.653,302.063
0.446,-0.403,-0.019,124.023,1.343,310.974
0.440,-0.326,-0.027,127.197,-2.502,317.566
0.425,-0.252,-0.031,129.333,-7.996,323.547
0.400,-0.165,-0.024,129.578,-12.146,328.918
0.294,0.186,0.085,130.066,-30.762,338.623
0.281,0.274,0.122,129.517,-31.738,336.914
0.265,0.371,0.149,126.709,-31.311,333.801
0.233,0.440,0.161,122.681,-29.785,328.613
0.208,0.503,0.161,115.906,-29.480,324.280
0.178,0.544,0.160,108.704,-30.151,319.214
0.157,0.590,0.163,100.037,-32.349,314.270
0.131,0.628,0.171,92.285,-34.790,307.007
0.103,0.667,0.170,82.886,-38.086,299.561
0.064,0.699,0.161,76.843,-42.297,289.978
0.035,0.709,0.142,70.557,-50.476,282.654
0.015,0.740,0.155,65.369,-59.204,276.611
0.015,0.777,0.216,60.608,-68.176,273.071
-0.003,0.851,0.245,54.565,-77.209,267.700
-0.001,0.922,0.357,49.377,-83.069,260.925
-0.010,1.020,0.423,38.879,-83.618,253.906
-0.036,1.091,0.477,27.710,-81.665,241.821
-0.082,1.129,0.516,17.883,-81.360,228.455
-0.132,1.145,0.542,14.465,-82.825,212.402
-0.152,1.148,0.571,14.648,-84.839,200.134
-0.151,1.154,0.650,14.587,-84.412,187.073
-0.135,1.162,0.682,13.367,-80.444,177.490
-0.127,1.156,0.726,12.451,-74.341,165.161
-0.124,1.149,0.763,12.939,-63.538,155.518
-0.141,1.136,0.773,15.198,-55.237,143.005
-0.178,1.126,0.648,28.748,-37.231,100.830
-0.165,1.153,0.638,30.396,-38.391,94.727
-0.151,1.187,0.662,31.067,-39.307,88.013
-0.146,1.226,0.703,32.043,-38.452,81.421
-0.148,1.275,0.737,31.860,-36.133,71.594
-0.143,1.306,0.771,32.166,-31.433,62.927
-0.136,1.332,0.781,31.921,-27.161,53.101
-0.131,1.363,0.775,28.870,-22.522,44.434
-0.129,1.384,0.772,25.330,-19.348,33.386
-0.132,1.386,0.752,17.456,-16.846,23.254
-0.129,1.383,0.727,9.521,-15.625,11.475
-0.114,1.375,0.701,-0.305,-16.357,2.686
-0.094,1.355,0.681,-9.888,-17.700,-6.775
-0.078,1.331,0.659,-20.386,-18.860,-14.160
-0.056,1.300,0.642,-28.137,-19.104,-22.400
-0.049,1.269,0.613,-36.682,-18.982,-28.931
-0.042,1.233,0.583,-42.297,-19.104,-36.865
-0.041,1.218,0.545,-46.448,-20.020,-43.213
-0.033,1.205,0.513,-49.255,-21.729,-50.232
-0.021,1.203,0.480,-51.636,-24.719,-56.335
-0.003,1.212,0.458,-54.932,-27.161,-63.904
0.014,1.221,0.439,-59.875,-30.029,-70.984
0.030,1.215,0.434,-65.308,-32.776,-79.956
0.044,1.198,0.428,-71.472,-33.997,-87.891
0.056,1.162,0.419,-76.782,-33.508,-97.351
0.073,1.118,0.399,-79.468,-31.799,-104.370
0.145,0.988,0.241,-66.284,-28.381,-131.775
0.156,0.971,0.217,-62.500,-30.212,-139.648
0.168,0.941,0.197,-60.608,-32.654,-147.278
0.189,0.901,0.194,-59.021,-34.790,-155.884
0.211,0.840,0.186,-57.373,-37.231,-162.415
0.236,0.790,0.167,-55.847,-38.574,-168.457
0.253,0.740,0.141,-54.871,-41.504,-172.363
0.263,0.697,0.127,-55.847,-45.166,-176.392
0.265,0.645,0.113,-59.326,-50.110,-179.687
0.263,0.597,0.108,-63.416,-54.504,-182.617
0.261,0.535,0.116,-70.496,-59.998,-185.486
0.263,0.465,0.120,-77.576,-64.087,-188.232
0.268,0.369,0.121,-82.947,-67.810,-189.636
0.273,0.285,0.121,-86.548,-72.327,-189.697
0.275,0.193,0.113,-86.304,-75.867,-188.416
0.276,0.133,0.106,-85.083,-80.688,-185.181
0.282,0.077,0.103,-83.496,-85.205,-182.678
0.283,0.044,0.110,-83.313,-90.637,-179.077
0.278,0.002,0.127,-83.984,-96.130,-177.368
0.269,-0.035,0.141,-84.595,-101.563,-176.697
0.259,-0.222,0.255,-80.017,-123.474,-174.072
0.248,-0.279,0.313,-74.951,-125.916,-175.659
0.234,-0.327,0.403,-68.726,-126.770,-179.260
0.249,-0.404,0.437,-58.777,-124.390,-183.105
0.208,-0.476,0.479,-48.706,-119.019,-188.049
0.204,-0.569,0.521,-32.471,-114.319,-191.895
0.207,-0.647,0.549,-0.793,-107.117,-195.923
0.205,-0.742,0.567,0.366,-102.539,-197.144
0.202,-0.813,0.585,11.230,-98.145,-197.083
0.208,-0.883,0.597,20.386,-97.046,-194.336
0.228,-0.937,0.613,23.437,-97.839,-188.599
0.252,-0.995,0.639,21.729,-100.769,-181.152
0.284,-1.043,0.691,17.639,-105.103,-171.021
0.307,-1.100,0.745,12.329,-109.375,-160.828
0.331,-1.147,0.826,8.667,-111.694,-145.752
0.346,-1.185,0.898,3.845,-112.122,-131.592
0.357,-1.192,0.970,-0.366,-108.948,-113.403
0.331,-0.999,1.119,-7.812,-87.891,-55.542
0.321,-0.915,1.146,-9.094,-82.031,-45.044
0.306,-0.850,1.175,-10.254,-73.608,-37.842
0.283,-0.777,1.195,-11.902,-65.247,-31.433
0.260,-0.719,1.208,-13.306,-55.481,-26.978
0.238,-0.663,1.206,-13.916,-46.753,-22.888
0.221,-0.620,1.184,-13.489,-35.645,-19.897
0.203,-0.572,1.152,-11.963,-27.710,-17.700
0.197,-0.507,1.110,-8.667,-18.982,-16.113
0.180,-0.496,1.068,-5.066,-12.390,-13.672
0.168,-0.460,1.024,-1.465,-6.409,-12.085
0.151,-0.425,0.989,0.977,-1.526,-10.315
0.135,-0.394,0.951,3.967,3.906,-8.972
0.116,-0.358,0.915,6.409,7.385,-7.385
0.102,-0.326,0.876,8.057,11.475,-6.042
0.091,-0.290,0.843,9.888,12.756,-4.211
0.082,-0.262,0.806,8.789,15.137,-2.502
0.070,-0.226,0.775,7.080,15.869,-0.122
0.061,-0.192,0.738,5.188,15.869,1.709
0.049,-0.156,0.713,3.479,16.479,4.211
0.041,-0.124,0.688,1.465,16.235,5.615
0.025,-0.085,0.665,0.061,16.418,6.409
0.007,-0.057,0.643,-0.610,16.235,6.470
-0.010,-0.025,0.622,-1.953,16.296,5.615
-0.028,-0.008,0.607,-2.441,16.418,3.967
-0.037,0.010,0.586,-3.540,15.564,1.709
-0.042,0.016,0.568,-4.761,31.189,-0.854
-0.046,0.017,0.547,-5.005,15.015,-3.296
-0.047,0.016,0.534,-4.272,14.099,-5.798
-0.052,0.019,0.517,-3.967,14.282,-8.118
-0.057,0.022,0.504,-2.869,12.878,-11.536
-0.061,0.021,0.492,-1.709,12.024,-14.282
-0.058,0.016,0.487,-1.160,10.864,-17.578
-0.050,0.010,0.492,0.732,9.277,-20.691
-0.035,-0.006,0.498,0.916,8.972,-23.499
-0.018,-0.021,0.506,1.526,8.057,-24.719
0.001,-0.041,0.510,2.319,8.484,-26.062
0.011,-0.092,0.503,2.625,8.545,-26.184
0.018,-0.081,0.498,3.357,8.911,-25.452
0.027,-0.095,0.493,3.601,7.751,-24.414
0.037,-0.112,0.495,2.380,6.775,-22.583
0.046,-0.120,0.492,2.502,5.493,-19.958
0.054,-0.127,0.487,1.404,4.456,-16.113
0.055,-0.125,0.485,0.061,3.235,-12.756
0.055,-0.121,0.484,-1.221,2.258,-9.460
0.050,-0.116,0.487,-2.258,0.488,-5.920
0.047,-0.104,0.494,-3.357,-0.305,-3.540
0.036,-0.062,0.494,-4.089,-2.319,4.211
0.032,-0.048,0.492,-3.357,-3.113,4.578
0.030,-0.028,0.495,-2.930,-3.479,4.517
0.026,-0.009,0.500,-3.296,-3.418,3.784
0.025,0.007,0.505,-3.296,-3.296,2.747
0.023,0.015,0.501,-3.174,-3.235,1.282
0.023,0.013,0.499,-2.869,-3.174,-0.244
0.021,0.012,0.499,-2.197,-2.991,-1.831
0.024,0.012,0.502,-1.160,-3.418,-3.357
0.022,0.011,0.505,-0.244,-2.686,-4.272
0.023,0.010,0.506,-0.122,-2.502,-5.554
0.023,0.008,0.504,0.183,-2.258,-6.653
0.022,0.009,0.499,0.427,-2.686,-7.629
0.023,0.008,0.501,-0.122,-3.540,-9.277
0.022,0.004,0.504,0.671,-4.517,-10.437
0.027,0.003,0.511,1.282,-5.249,-11.169
0.032,-0.002,0.520,1.099,-5.981,-12.146
0.044,-0.008,0.534,0.549,-6.592,-12.207
0.055,-0.020,0.557,-0.366,-5.493,-11.719
0.068,-0.023,0.573,-1.343,-3.052,-10.559
0.069,-0.026,0.579,-2.258,-0.854,-9.155
0.067,-0.026,0.570,-2.625,1.770,-8.179
0.058,-0.026,0.553,-2.441,2.869,-7.568
0.055,-0.029,0.546,-1.282,2.991,-7.141
0.055,-0.028,0.542,-0.305,2.319,-7.141
0.058,-0.026,0.548,-0.305,2.869,-7.080
0.060,-0.026,0.554,-0.244,3.113,-6.775
0.064,-0.031,0.556,-0.244,4.150,-6.226
0.063,-0.039,0.556,-1.221,3.540,-6.287
0.060,-0.046,0.557,-1.099,4.639,-5.371
0.056,-0.056,0.553,-0.671,5.188,-4.883
0.055,-0.061,0.542,0.183,6.042,-4.517
0.053,-0.065,0.525,1.099,5.249,-3.784
0.052,-0.066,0.515,1.648,4.578,-3.418
0.051,-0.067,0.511,2.563,3.479,-2.441
0.051,-0.064,0.513,3.784,2.136,-1.587
0.053,-0.064,0.519,3.723,1.709,-1.282
0.049,-0.063,0.520,3.357,1.831,-0.732
0.048,-0.063,0.525,4.333,1.709,-0.122
0.043,-0.059,0.524,4.822,2.625,0.488
0.042,-0.055,0.525,5.676,2.686,0.488
0.040,-0.055,0.525,6.409,3.113,0.977
0.040,-0.051,0.524,6.653,4.089,1.526
0.039,-0.045,0.523,7.507,3.418,1.709
0.038,-0.044,0.521,7.812,4.089,2.258
0.038,-0.043,0.522,8.118,3.967,2.747
0.037,-0.040,0.515,8.118,4.578,3.296
0.041,-0.039,0.508,8.423,4.395,3.357
0.043,-0.034,0.502,8.362,3.357,4.700
0.041,-0.029,0.500,9.277,2.991,5.249
0.039,-0.017,0.492,9.277,2.441,5.615
0.039,-0.008,0.485,8.911,2.075,5.249
0.001,0.000,0.487,8.118,0.549,4.700
0.028,0.006,0.487,8.118,-0.061,4.272
0.027,0.009,0.497,7.996,0.122,3.479
0.023,0.011,0.504,8.484,-0.122,2.747
0.025,0.011,0.512,9.277,0.305,1.648
0.024,0.010,0.519,9.399,0.366,0.305
0.024,0.008,0.519,10.376,0.793,-0.427
0.024,0.005,0.519,9.766,0.183,-1.343
0.028,0.008,0.514,8.911,0.183,-2.991
0.035,0.002,0.513,7.507,-0.366,-2.686
0.040,-0.005,0.513,6.165,-0.854,-2.502
0.043,-0.011,0.513,5.005,-1.648,-2.197
0.051,-0.016,0.516,3.540,-2.136,-0.732
0.051,-0.017,0.519,1.526,-2.319,0.183
0.051,-0.019,0.525,1.099,-1.709,1.038
0.051,-0.023,0.531,-0.671,-1.160,1.709
0.048,-0.021,0.530,-0.610,-15.564,2.808
0.047,-0.021,0.528,-0.366,0.000,2.869
0.041,-0.014,0.521,-0.366,1.160,3.723
0.042,-0.011,0.514,-0.549,0.244,3.723
0.042,-0.006,0.507,-1.648,-15.015,3.479
0.042,-0.002,0.505,-1.587,-1.160,3.357
0.043,0.010,0.506,-1.221,-1.160,2.625
0.039,0.015,0.508,-1.770,-2.014,2.197
0.038,0.017,0.512,-2.258,-1.831,1.709
0.043,0.018,0.513,-2.136,-2.563,1.343
0.039,0.018,0.511,-3.113,-1.831,0.122
0.041,0.017,0.509,-3.113,-3.052,-0.183
0.039,0.017,0.510,-2.930,-2.747,-0.610
0.042,0.016,0.515,-3.052,-2.869,-0.977
0.039,0.013,0.514,-3.113,-2.991,-1.465
0.041,0.013,0.516,-2.625,-2.136,-1.709
0.042,0.010,0.517,-2.808,-2.441,-2.075
0.040,0.009,0.518,-3.540,-1.892,-2.991
0.039,0.006,0.517,-3.662,-1.892,-2.991
0.040,0.001,0.518,-2.502,-2.014,-3.479
0.041,-0.007,0.518,-2.686,-2.136,-3.540
0.045,-0.008,0.520,-3.357,-3.052,-3.845
0.047,-0.012,0.527,-3.418,-2.014,-3.601
0.048,-0.021,0.530,-3.235,-1.709,-3.479
0.048,-0.031,0.530,-4.456,-1.343,-2.808
0.049,-0.036,0.528,-4.089,-0.732,-2.136
0.049,-0.039,0.527,-3.967,-0.610,-1.221
0.049,-0.040,0.524,-3.967,-0.061,-0.732
0.049,-0.037,0.520,-3.235,-0.488,15.381
0.048,-0.033,0.518,-3.357,-0.610,0.366
0.046,-0.026,0.515,-3.235,-1.282,0.854
0.043,-0.021,0.513,-3.662,-1.709,1.465
0.042,-0.013,0.511,-3.784,-1.892,1.953
0.038,-0.009,0.514,-4.395,-3.174,1.953
0.039,-0.006,0.523,-3.845,-3.723,2.075
0.039,0.004,0.536,-3.418,-3.723,1.892
0.038,0.006,0.544,-3.235,-3.601,1.343
0.037,0.004,0.547,-2.808,-2.502,0.732
0.037,0.004,0.544,-2.441,-1.892,0.549
0.035,0.002,0.542,-2.014,-0.854,0.061
0.035,0.002,0.541,-1.343,-0.549,-0.549
0.034,0.003,0.541,-0.305,0.000,-1.221
0.033,0.004,0.536,-0.366,0.183,-1.221
0.033,0.001,0.535,-0.488,15.503,-1.465
0.032,-0.030,0.532,-0.854,0.244,-1.465
0.031,-0.004,0.528,-0.854,0.427,-1.343
0.025,-0.009,0.521,-1.465,0.488,-1.648
0.026,-0.014,0.516,-2.014,0.488,-1.831
0.024,-0.020,0.512,-1.709,0.305,-2.014
0.028,-0.026,0.513,-1.709,0.061,-1.587

0.891,-1.736,0.052,28.687,40.710,-349.670
0.911,-1.868,0.058,48.950,39.246,-330.444
0.925,-1.940,0.077,60.486,35.583,-304.199
0.927,-2.009,0.106,65.491,30.823,-279.846
0.922,-2.083,0.129,62.622,24.475,-248.291
0.915,-2.145,0.138,54.138,14.893,-219.910
0.914,-2.212,0.130,44.250,5.920,-183.350
0.896,-2.257,0.120,33.569,-4.395,-151.245
0.883,-2.292,0.109,26.611,-14.038,-113.098
0.864,-2.290,0.100,24.536,-22.705,-81.848
0.847,-2.261,0.101,27.893,-29.907,-47.485
0.831,-2.214,0.130,34.180,-36.377,-20.813
0.807,-2.138,0.172,43.945,-40.039,7.996
0.792,-2.075,0.233,51.514,-40.161,30.640
0.788,-1.993,0.274,60.730,-38.635,55.115
0.790,-1.924,0.309,69.580,-35.706,74.036
0.779,-1.834,0.325,81.543,-31.616,107.422
0.751,-1.758,0.331,90.454,-27.283,110.474
0.729,-1.667,0.333,102.417,-23.010,139.587
0.704,-1.587,0.337,112.122,-18.738,138.428
0.659,-1.495,0.348,122.803,-13.428,148.132
0.669,-1.421,0.350,130.615,-7.935,158.936
0.651,-1.338,0.343,139.526,-2.747,167.114
0.631,-1.267,0.321,145.630,1.709,176.086
0.619,-1.185,0.290,151.001,4.517,182.861
0.591,-0.976,0.221,152.222,6.836,212.952
0.584,-0.948,0.215,149.841,6.042,223.694
0.571,-0.927,0.211,146.240,4.578,233.459
0.550,-0.907,0.198,142.761,2.808,247.131
0.536,-0.870,0.175,140.991,-0.427,259.583
0.520,-0.809,0.158,140.686,-3.418,273.682
0.509,-0.751,0.149,140.076,-7.507,285.583
0.498,-0.670,0.154,139.282,-10.193,298.889
0.481,-0.601,0.160,137.329,-14.282,308.044
0.437,-0.516,0.145,136.719,-16.785,318.604
0.396,-0.435,0.101,137.695,-23.010,325.562
0.356,-0.322,0.062,139.832,-29.663,331.482
0.337,-0.209,0.033,142.456,-41.260,336.182
0.281,-0.083,0.035,146.301,-51.880,338.562
0.313,0.028,0.079,148.376,-61.951,339.783
0.312,0.154,0.153,148.926,-67.444,338.379
0.302,0.250,0.230,147.705,-71.106,335.693
0.282,0.357,0.324,142.395,-71.716,332.520
0.245,0.432,0.381,135.376,-70.557,327.759
0.208,0.500,0.432,126.465,-67.505,322.510
0.167,0.589,0.461,118.835,-64.270,315.308
0.135,0.664,0.477,111.572,-60.120,307.678
0.104,0.749,0.483,107.910,-55.969,296.570
-0.111,0.877,0.405,97.961,-38.269,241.638
-0.070,0.891,0.363,98.022,-40.649,232.544
-0.081,0.877,0.395,100.098,-42.358,225.281
-0.084,0.941,0.365,99.243,-46.509,216.370
-0.069,0.948,0.449,103.516,-49.316,207.886
-0.057,0.988,0.507,100.281,-42.175,202.332
-0.080,1.021,0.519,92.834,-38.147,195.374
-0.099,1.031,0.571,87.952,-33.203,185.791
-0.155,1.028,0.571,82.581,-30.457,177.185
-0.155,1.021,0.560,79.285,-30.762,168.396
-0.177,1.039,0.528,75.745,-33.691,163.147
-0.185,1.080,0.504,71.289,-39.368,157.654
-0.181,1.134,0.493,65.125,-44.556,153.137
-0.166,1.179,0.511,58.594,-48.584,146.423
-0.166,1.228,0.542,49.622,-50.659,139.893
-0.174,1.261,0.566,41.748,-51.514,130.188
-0.189,1.311,0.597,32.166,-51.636,122.559
-0.208,1.296,0.625,23.254,-52.124,113.525
-0.210,1.319,0.648,12.756,-52.063,105.896
-0.211,1.348,0.666,3.174,-51.941,96.802
-0.218,1.376,0.686,-7.996,-51.270,88.623
-0.226,1.400,0.702,-17.700,-50.232,77.637
-0.232,1.420,0.711,-28.564,-48.157,67.078
-0.232,1.439,0.711,-37.659,-46.265,53.589
-0.212,1.409,0.599,-67.932,-36.316,0.977
-0.201,1.400,0.544,-72.693,-36.438,-11.353
-0.184,1.383,0.474,-76.721,-38.147,-26.306
-0.168,1.353,0.465,-81.421,-39.917,-38.818
-0.138,1.317,0.448,-85.022,-41.382,-53.711
-0.123,1.254,0.432,-88.257,-41.626,-66.162
-0.104,1.192,0.417,-89.111,-41.321,-79.834
-0.063,1.114,0.398,-89.417,-40.222,-90.271
-0.081,1.047,0.345,-89.478,-39.307,-102.051
-0.072,0.958,0.342,-89.233,-39.185,-111.206
-0.055,0.887,0.313,-88.257,-40.039,-121.826
-0.043,0.798,0.301,-87.708,-41.016,-130.554
-0.025,0.719,0.308,-88.440,-42.236,-140.137
-0.005,0.610,0.314,-88.623,-42.786,-146.606
0.005,0.514,0.311,-88.379,-42.847,-152.161
0.016,0.402,0.293,-87.585,-43.823,-155.273
0.021,0.321,0.269,-86.609,-46.265,-156.616
0.022,0.235,0.250,-84.900,-48.645,-156.860
0.021,0.170,0.241,-83.618,-52.979,-156.921
0.022,0.101,0.243,-81.177,-57.129,-156.921
0.025,-0.161,0.330,-64.331,-71.411,-157.043
0.033,-0.220,0.361,-60.181,-73.853,-155.273
0.048,-0.289,0.377,-57.312,-75.562,-151.917
0.055,-0.333,0.397,-53.284,-77.820,-148.865
0.059,-0.379,0.411,-49.866,-79.529,-144.531
0.056,-0.410,0.430,-44.739,-82.397,-141.296
0.057,-0.440,0.445,-41.199,-84.290,-138.489
0.056,-0.460,0.473,-36.560,-87.524,-135.803
0.055,-0.483,0.506,-33.081,-88.806,-133.118
0.067,-0.512,0.543,-30.640,-90.576,-130.676
0.085,-0.560,0.573,-29.053,-91.919,-126.892
0.106,-0.607,0.609,-26.672,-92.163,-122.437
0.127,-0.641,0.641,-25.024,-93.018,-116.333
0.138,-0.672,0.682,-23.254,-92.834,-110.535
0.146,-0.697,0.749,-22.217,-91.736,-102.295
0.151,-0.721,0.762,-20.874,-89.966,-95.581
0.157,-0.734,0.791,-20.142,-88.684,-87.341
0.197,-0.685,0.866,-12.451,-79.956,-55.542
0.194,-0.654,0.885,-8.850,-76.904,-49.744
0.191,-0.625,0.913,-6.409,-73.303,-43.579
0.193,-0.583,0.940,-4.700,-68.176,-37.659
0.194,-0.549,0.958,-3.479,-62.561,-33.508
0.192,-0.512,0.969,-1.831,-57.129,-29.236
0.192,-0.487,0.980,-0.488,-50.720,-26.306
0.183,-0.461,0.992,0.793,-44.922,-23.682
0.177,-0.441,1.000,1.465,-37.109,-21.667
0.167,-0.421,0.992,2.747,-30.457,-19.775
0.160,-0.407,0.966,3.418,-23.010,-18.433
0.155,-0.395,0.933,4.578,-18.127,-16.052
0.150,-0.383,0.897,5.188,-13.550,-13.733
0.141,-0.362,0.867,6.104,-10.559,-11.230
0.131,-0.341,0.832,7.812,-7.996,-9.277
0.117,-0.311,0.812,9.094,-6.287,-7.324
0.107,-0.282,0.792,9.888,-4.639,-6.531
0.095,-0.244,0.779,10.498,-3.296,-5.676
0.088,-0.218,0.767,11.169,-1.892,-5.310
0.083,-0.193,0.760,10.925,-0.732,-5.005
0.077,-0.179,0.761,10.437,1.160,-5.493
0.075,-0.176,0.757,10.254,3.601,-5.066
0.070,-0.173,0.745,10.193,6.348,-3.479
0.037,-0.169,0.730,10.437,8.972,-2.197
0.059,-0.160,0.711,10.681,11.902,-0.122
0.050,-0.148,0.682,11.169,13.733,1.282
0.036,-0.136,0.652,11.536,14.648,3.052
0.029,-0.118,0.621,11.536,13.916,4.883
0.023,-0.098,0.595,11.169,12.817,6.775
0.018,-0.074,0.579,9.460,10.620,7.568
0.014,-0.051,0.575,7.812,8.606,8.667
0.011,-0.033,0.578,5.554,6.836,8.789
0.005,-0.016,0.578,4.456,5.981,8.728
-0.002,-0.002,0.580,3.601,6.165,8.118
-0.012,0.007,0.578,2.747,6.348,7.202
-0.016,0.013,0.574,2.441,6.653,5.981
-0.021,0.018,0.569,2.625,6.897,4.700
-0.018,0.019,0.560,2.197,7.385,3.296
-0.018,0.016,0.551,2.014,7.080,2.625
-0.017,0.022,0.544,2.014,7.690,2.014
-0.022,0.018,0.538,1.587,6.836,1.343
-0.020,0.019,0.535,1.160,7.263,0.793
-0.021,0.027,0.526,0.427,6.348,0.244
-0.024,0.033,0.520,-0.671,5.920,-0.061
-0.027,0.032,0.515,-1.648,4.883,-1.343
-0.024,0.029,0.512,-2.502,4.578,-2.136
-0.024,0.025,0.511,-2.747,3.662,-3.174
-0.024,0.018,0.510,-3.113,3.296,-3.906
-0.018,0.014,0.508,-3.174,2.686,-4.333
-0.016,0.010,0.509,-3.418,2.319,-4.761
-0.010,0.006,0.509,-3.601,1.831,-4.944
-0.009,0.005,0.507,-3.967,1.526,-5.371
-0.004,0.002,0.509,-4.883,1.038,-6.042
-0.007,-0.002,0.507,-6.165,0.793,-6.470
-0.001,-0.008,0.508,-6.775,0.488,-7.019
0.003,-0.014,0.511,-7.324,-0.061,-7.263
0.011,-0.020,0.510,-7.935,0.305,-6.775
0.013,-0.028,0.509,-7.874,1.160,-6.653
0.013,-0.035,0.508,-6.531,1.526,-6.409
0.016,-0.041,0.509,-5.188,1.526,-5.981
0.015,-0.036,0.514,-4.028,1.892,-5.310
0.022,-0.034,0.514,-2.625,2.136,-5.005
0.021,-0.029,0.518,-1.953,2.563,-4.395
0.026,-0.024,0.518,-1.648,2.930,-4.272
0.022,-0.021,0.518,-1.221,2.869,-3.906
0.015,-0.020,0.515,-1.526,2.930,-3.601
0.008,-0.018,0.512,-2.014,2.625,-4.089
0.004,-0.020,0.512,-2.319,2.747,-4.517
0.002,-0.021,0.511,-2.563,2.319,-5.005
0.002,-0.022,0.512,-2.686,2.441,-5.615
0.004,-0.020,0.504,-3.723,2.258,-5.371
0.006,-0.020,0.499,-3.784,2.075,-5.676
0.008,-0.026,0.485,-2.014,-1.221,-6.042
0.008,-0.026,0.490,-1.404,-2.075,-5.737
0.013,-0.021,0.501,-0.854,-2.197,-5.737
0.016,-0.021,0.509,-0.610,-2.258,-5.920
0.020,-0.021,0.516,-0.366,-2.075,-5.615
0.022,-0.016,0.522,-0.732,-2.747,-5.371
0.022,-0.010,0.523,-0.793,-1.892,-5.249
0.022,-0.008,0.519,-0.793,-2.563,-4.883
0.025,-0.003,0.519,-0.732,-2.747,-5.310
0.028,0.001,0.519,-1.343,-2.747,-5.676
0.031,0.006,0.522,-1.221,-3.357,-5.676
0.034,0.005,0.523,-0.854,-3.174,-6.165
0.032,0.010,0.531,-0.916,-2.991,-6.165
0.035,0.010,0.533,-0.977,-2.625,-5.981
0.034,0.007,0.538,-0.671,-1.526,-6.409
0.031,0.004,0.537,-0.488,-1.221,-6.958
0.027,0.000,0.532,0.427,-0.305,-7.751
0.025,-0.008,0.528,1.770,0.366,-8.911
0.025,-0.015,0.525,1.709,1.404,-9.460
0.029,-0.022,0.518,3.052,1.526,-9.766
0.030,-0.031,0.515,3.113,2.380,-9.827
0.032,-0.035,0.512,3.845,2.014,-9.521
0.029,-0.044,0.508,4.211,2.258,-9.583
0.026,-0.056,0.505,4.944,2.441,-9.338
0.025,-0.063,0.501,5.127,2.380,-8.545
0.027,-0.068,0.503,4.272,2.563,-7.690
0.028,-0.073,0.502,3.662,2.258,-6.775
0.027,-0.078,0.493,3.174,2.197,-4.822
0.026,-0.078,0.483,2.625,1.282,-3.418
0.019,-0.073,0.474,2.441,0.122,-2.197
0.014,-0.068,0.463,2.319,-0.854,-1.343
0.011,-0.057,0.460,2.502,-2.869,-0.916
0.010,-0.047,0.467,3.174,-4.700,-0.366
0.009,-0.033,0.472,3.296,-5.981,-0.183
0.001,-0.027,0.481,3.479,-7.263,-0.549
0.029,-0.017,0.489,4.272,-7.874,-1.404
0.002,-0.012,0.504,4.456,-7.874,-2.258
0.004,-0.005,0.510,4.211,-7.507,-2.991
0.007,-0.004,0.515,4.822,-7.202,-3.662
0.010,-0.006,0.516,4.822,-7.263,-4.333
0.011,-0.006,0.516,4.639,-6.531,-4.578
0.013,-0.007,0.517,4.639,-6.104,-4.639
0.013,-0.007,0.516,4.883,-5.554,-5.188
0.014,-0.009,0.515,4.761,-5.920,-5.371
0.015,-0.010,0.517,5.432,-5.859,-5.493
0.015,-0.011,0.520,5.310,-5.615,-5.737
0.015,-0.013,0.522,5.493,-5.798,-6.165
0.015,-0.010,0.524,5.981,-5.798,-6.226
0.014,-0.011,0.529,6.042,-6.287,-6.958
0.016,-0.008,0.534,6.226,-5.310,-7.385
0.016,-0.012,0.533,5.310,-6.042,-7.263
0.019,-0.018,0.534,4.272,-5.859,-7.629
0.022,-0.017,0.537,3.418,-6.348,-7.751
0.025,-0.015,0.543,2.014,-7.141,-7.568
0.028,-0.017,0.549,0.610,-7.385,-7.202
0.029,-0.016,0.556,-1.404,-6.714,-6.531
0.028,-0.017,0.559,-2.319,-5.981,-6.165
0.028,-0.021,0.561,-3.418,-4.883,-6.042
0.026,-0.020,0.560,-3.662,-4.211,-5.859
0.025,-0.021,0.558,-3.784,-3.296,-5.920
0.026,-0.022,0.555,-3.418,-2.869,-5.859
0.024,-0.021,0.553,-3.296,-2.563,-5.981
0.024,-0.023,0.551,-3.235,-1.648,-5.737
0.024,-0.023,0.552,-3.296,-1.282,-6.042
0.024,-0.026,0.550,-3.723,-0.732,-6.042
0.026,-0.025,0.552,-4.150,-0.183,-5.798
0.029,-0.027,0.552,-4.517,0.183,-5.554
0.028,-0.031,0.549,-4.639,1.038,-5.371
0.026,-0.032,0.550,-5.005,1.770,-4.639
0.027,-0.035,0.544,-4.639,2.319,-4.395
0.026,-0.035,0.542,-4.456,2.441,-3.845
0.026,-0.038,0.540,-3.967,3.479,-3.357
0.026,-0.036,0.538,-3.784,3.906,-3.113
0.026,-0.034,0.533,-2.869,5.127,-2.686
0.021,-0.030,0.524,-2.991,5.554,-2.747
0.018,-0.029,0.515,-2.258,5.310,-2.991
0.017,-0.027,0.508,-2.197,5.066,-3.357
0.017,-0.029,0.505,-2.075,4.089,-3.540
0.019,-0.029,0.505,-2.625,4.028,-3.479
0.022,-0.033,0.506,-2.686,3.113,-3.296
0.022,-0.037,0.508,-3.357,2.991,-3.174
0.018,-0.041,0.505,-3.357,2.380,-3.296
0.018,-0.042,0.503,-3.052,2.502,-3.174
0.017,-0.040,0.500,-2.258,2.014,-3.357
0.012,-0.038,0.496,-2.136,1.465,-3.540
0.007,-0.037,0.491,-1.648,0.244,-4.028
0.006,-0.035,0.490,0.000,-15.564,-4.639
0.010,-0.037,0.509,1.892,-2.563,-5.798
0.010,-0.041,0.516,2.258,-2.319,-6.042
0.010,-0.041,0.522,2.319,-1.892,-6.165
0.012,-0.044,0.524,2.197,-1.587,-6.042
0.013,-0.047,0.527,1.953,-1.343,-5.859
0.013,-0.045,0.524,2.197,-1.587,-5.249
0.015,-0.045,0.523,1.709,-1.221,-3.784
0.015,-0.040,0.520,0.854,-1.465,-3.113
0.015,-0.035,0.520,0.244,-1.953,-2.380
0.016,-0.029,0.520,-0.183,-2.197,-2.075
0.011,-0.023,0.522,0.000,-2.563,-2.075
0.010,-0.025,0.527,-0.427,-2.502,-2.441
0.011,-0.025,0.533,-0.549,-2.075,-2.136
0.010,-0.027,0.537,-0.610,-1.953,-2.258
0.012,-0.027,0.537,-1.343,-1.892,-2.319
0.015,-0.029,0.538,-1.648,-1.587,-2.319
0.016,-0.028,0.536,-1.526,-1.343,-2.380
0.014,-0.030,0.536,-2.075,-1.221,-2.380
0.016,-0.029,0.535,-2.686,-0.916,-2.136
0.016,-0.032,0.531,-3.418,-1.770,-2.258
0.016,-0.034,0.561,-3.967,-1.099,-2.197
0.018,-0.041,0.530,-4.700,-1.465,-2.075
0.019,-0.045,0.529,-4.761,-1.404,-1.648
0.022,-0.053,0.528,-4.517,-0.732,-1.343
0.022,-0.054,0.524,-5.249,-1.282,-0.916
0.021,-0.055,0.525,-5.005,-1.038,-0.427
0.020,-0.057,0.521,-4.822,-0.977,0.122
0.021,-0.054,0.520,-4.517,-0.366,0.549
0.021,-0.057,0.517,-4.944,-1.221,0.916
0.021,-0.058,0.516,-4.578,-1.343,0.977
0.024,-0.056,0.518,-3.906,-1.343,1.465
0.023,-0.058,0.516,-3.601,-1.221,1.831

0.856,-1.785,0.010,-40.710,18.860,-299.988
0.861,-1.885,-0.012,-36.926,12.878,-278.503
0.857,-1.981,-0.019,-32.227,8.362,-249.939
0.847,-2.044,-0.018,-27.710,1.038,-225.830
0.830,-2.101,-0.002,-24.963,-3.357,-196.533
0.816,-2.144,0.024,-22.400,-10.132,-170.959
0.808,-2.188,0.045,-21.667,-14.221,-140.137
0.804,-2.208,0.061,-19.836,-19.714,-113.708
0.804,-2.202,0.074,-17.578,-24.231,-82.031
0.794,-2.177,0.088,-13.794,-26.245,-56.824
0.772,-2.137,0.104,-9.888,-28.687,-28.687
0.749,-2.077,0.123,-2.808,-30.884,-7.019
0.726,-2.014,0.147,3.662,-30.701,15.930
0.704,-1.932,0.179,12.024,-29.724,32.471
0.684,-1.868,0.201,20.203,-26.855,50.110
0.672,-1.809,0.226,28.442,-22.827,63.110
0.663,-1.754,0.238,35.645,-17.090,78.552
0.652,-1.699,0.236,45.715,-11.841,90.637
0.635,-1.641,0.229,54.321,-6.714,103.455
0.617,-1.585,0.208,64.941,-0.366,113.464
0.592,-1.517,0.184,73.730,4.211,124.207
0.575,-1.455,0.157,83.557,8.240,132.141
0.557,-1.390,0.134,88.562,9.888,141.113
0.545,-1.339,0.114,93.201,10.254,148.010
0.545,-1.289,0.096,96.497,9.888,156.860
0.547,-1.253,0.074,97.351,7.568,164.856
0.527,-1.079,0.044,104.370,1.099,205.017
0.517,-1.022,0.029,106.079,-0.854,213.257
0.509,-0.965,0.021,107.239,-4.028,223.328
0.510,-0.907,0.023,106.018,-6.958,231.140
0.507,-0.869,0.021,103.821,-11.414,241.272
0.504,-0.819,0.014,99.548,-15.137,250.427
0.503,-0.778,0.014,96.008,-20.630,261.719
0.505,-0.718,0.016,92.163,-25.269,270.996
0.504,-0.666,0.026,90.088,-30.884,281.128
0.500,-0.598,0.039,87.891,-33.508,289.185
0.487,-0.536,0.048,86.548,-36.438,297.119
0.470,-0.446,0.051,85.022,-39.551,302.856
0.450,-0.406,0.046,84.229,-42.175,308.228
0.433,-0.320,0.039,84.045,-46.631,312.805
0.414,-0.282,0.034,85.327,-49.500,316.284
0.400,-0.216,0.033,88.562,-54.138,318.115
0.379,-0.131,0.035,92.773,-56.824,318.848
0.357,-0.059,0.040,97.168,-60.547,318.420
0.339,0.030,0.055,99.854,-63.843,315.491
0.314,0.087,0.069,101.624,-66.528,312.256
0.287,0.145,0.085,101.990,-69.275,309.448
0.264,0.188,0.106,101.318,-71.838,305.908
0.247,0.245,0.118,101.074,-75.989,303.284
0.238,0.300,0.139,101.318,-78.918,299.744
0.202,0.543,0.222,95.215,-85.388,284.180
0.178,0.587,0.246,92.896,-87.036,280.273
0.146,0.617,0.264,90.881,-89.722,276.978
0.129,0.659,0.287,88.745,-92.957,274.597
0.111,0.698,0.313,86.243,-96.741,272.644
0.109,0.777,0.344,83.801,-99.976,270.935
0.106,0.814,0.365,81.970,-102.783,268.127
0.099,0.876,0.398,77.637,-104.614,265.076
0.076,0.956,0.422,73.792,-106.262,259.216
0.041,1.021,0.448,69.824,-107.605,252.869
-0.001,1.099,0.468,65.857,-110.291,245.605
-0.041,1.175,0.502,47.363,-114.258,235.962
-0.085,1.257,0.544,58.655,-119.019,226.257
-0.080,1.345,0.646,54.443,-120.728,213.623
-0.119,1.436,0.655,50.110,-123.657,199.036
-0.110,1.486,0.812,46.143,-117.981,183.655
-0.152,1.573,0.835,36.804,-109.863,170.410
-0.156,1.594,0.863,31.494,-102.722,151.184
-0.173,1.602,0.903,28.625,-97.717,134.827
-0.199,1.614,0.897,28.687,-78.796,116.882
-0.205,1.630,0.903,27.588,-91.125,104.431
-0.187,1.665,0.914,24.231,-88.257,90.027
-0.178,1.694,0.919,16.113,-81.909,78.979
-0.175,1.721,0.913,8.301,-77.820,66.040
-0.157,1.663,0.884,-21.423,-64.636,16.785
-0.150,1.630,0.862,-30.273,-60.303,7.202
-0.132,1.596,0.843,-36.926,-58.411,-3.174
-0.124,1.572,0.816,-44.800,-57.617,-11.780
-0.105,1.545,0.804,-51.086,-56.885,-20.935
-0.096,1.503,0.786,-58.594,-55.847,-29.114
-0.077,1.508,0.776,-64.941,-54.810,-40.161
-0.059,1.474,0.759,-71.777,-52.185,-48.889
-0.037,1.431,0.739,-75.684,-50.598,-59.265
-0.020,1.374,0.718,-79.163,-46.692,-67.017
0.006,1.325,0.658,-81.360,-43.213,-75.378
0.018,1.271,0.647,-81.665,-39.185,-81.665
0.027,1.226,0.564,-81.177,-36.011,-89.600
0.035,1.178,0.534,-81.909,-34.485,-96.436
0.040,1.134,0.489,-83.435,-34.912,-104.858
0.047,1.076,0.453,-87.097,-36.438,-112.061
0.056,1.019,0.435,-91.614,-39.612,-120.544
0.073,0.937,0.419,-97.534,-41.931,-127.197
0.092,0.862,0.405,-102.783,-45.532,-134.460
0.111,0.764,0.385,-108.215,-47.668,-139.526
0.123,0.682,0.371,-110.596,-49.988,-144.958
0.161,0.297,0.337,-95.703,-54.138,-158.264
0.171,0.196,0.358,-86.060,-52.979,-159.912
0.178,0.121,0.365,-77.698,-51.025,-161.194
0.167,0.045,0.366,-67.932,-49.072,-160.583
0.157,-0.016,0.348,-60.730,-49.500,-158.997
0.151,-0.071,0.330,-55.359,-50.598,-157.043
0.149,-0.105,0.315,-52.368,-54.810,-155.396
0.148,-0.149,0.316,-49.072,-59.082,-154.663
0.149,-0.184,0.334,-46.570,-65.002,-154.114
0.144,-0.234,0.361,-44.373,-68.726,-154.419
0.148,-0.283,0.396,-42.664,-71.777,-155.090
0.149,-0.350,0.422,-38.696,-72.998,-154.602
0.153,-0.411,0.434,-34.729,-73.364,-154.236
0.152,-0.476,0.443,-27.893,-74.646,-152.710
0.151,-0.526,0.448,-21.667,-75.195,-150.940
0.147,-0.584,0.462,-14.221,-76.111,-148.071
0.146,-0.624,0.487,-8.057,-76.416,-145.508
0.138,-0.671,0.513,-3.296,-77.942,-143.066
0.134,-0.917,0.645,6.714,-73.059,-125.671
0.147,-1.000,0.645,8.118,-70.984,-116.943
0.160,-1.010,0.641,11.169,-70.618,-105.591
0.169,-1.028,0.639,14.282,-70.251,-95.154
0.172,-1.030,0.643,16.357,-71.472,-82.764
0.172,-1.021,0.663,17.334,-72.388,-72.815
0.176,-1.007,0.687,16.968,-74.890,-60.608
0.183,-0.995,0.726,14.954,-75.928,-50.537
0.197,-0.973,0.755,12.939,-76.843,-38.879
0.205,-0.951,0.797,9.521,-76.782,-28.748
0.210,-0.924,0.826,7.202,-76.172,-16.724
0.211,-0.885,0.858,5.798,-73.669,-7.446
0.211,-0.828,0.888,5.493,-71.594,2.136
0.207,-0.769,0.922,3.784,-66.589,8.301
0.196,-0.693,0.947,1.465,-63.171,13.855
0.190,-0.639,0.971,-1.221,-58.044,17.212
0.181,-0.583,0.993,-4.089,-53.955,19.836
0.181,-0.545,1.013,-5.920,-47.302,22.095
0.177,-0.504,1.014,-6.104,-41.565,24.658
0.170,-0.470,1.002,-6.042,-34.058,26.062
0.165,-0.427,0.986,-2.930,-28.015,27.344
0.153,-0.391,0.959,0.977,-21.179,27.527
0.140,-0.342,0.937,5.981,-15.503,27.893
0.132,-0.304,0.914,9.766,-10.376,27.527
0.120,-0.258,0.897,13.550,-5.920,26.733
0.114,-0.226,0.883,14.526,-1.465,26.367
0.106,-0.189,0.874,15.381,1.953,26.123
0.100,-0.167,0.855,15.259,5.981,25.452
0.097,-0.147,0.828,15.137,9.644,25.635
0.093,-0.127,0.801,16.113,13.611,26.367
0.078,-0.099,0.763,16.663,16.541,27.100
0.063,-0.072,0.731,17.151,18.677,27.893
0.047,-0.045,0.697,17.273,20.813,28.320
0.033,-0.010,0.667,17.395,21.667,27.954
0.024,0.020,0.628,16.418,21.606,27.527
0.016,0.050,0.603,15.381,21.179,27.100
0.007,0.078,0.573,13.550,19.897,26.550
-0.015,0.155,0.515,8.667,13.306,22.339
-0.021,0.172,0.510,7.812,12.207,20.996
-0.027,0.188,0.505,7.812,10.925,18.921
-0.029,0.199,0.512,7.141,10.315,16.724
-0.033,0.207,0.514,6.775,10.071,14.160
-0.036,0.208,0.510,4.578,9.583,11.902
-0.038,0.204,0.502,3.784,9.521,9.216
-0.039,0.196,0.495,1.831,8.667,7.507
-0.042,0.184,0.486,0.610,7.446,4.578
-0.042,0.172,0.480,-1.221,5.371,2.869
-0.041,0.157,0.481,-2.747,3.723,0.366
-0.036,0.147,0.488,-2.563,2.441,-1.587
-0.001,0.135,0.495,-2.625,2.075,-3.235
-0.024,0.120,0.500,-3.113,2.380,-5.310
-0.017,0.104,0.501,-2.808,1.892,-7.019
-0.011,0.089,0.501,-2.625,1.404,-8.240
-0.008,0.080,0.499,-1.221,1.709,-9.155
-0.004,0.075,0.503,-1.160,1.404,-9.399
0.031,0.067,0.505,-1.465,1.099,-10.132
0.005,0.063,0.503,-2.136,0.427,-11.108
0.006,0.057,0.500,-4.456,-0.732,-10.925
0.016,0.049,0.503,-6.653,-2.197,-11.230
0.021,0.038,0.504,-9.460,-3.723,-11.230
0.030,0.034,0.505,-11.414,-4.639,-10.498
0.032,0.028,0.510,-13.184,-5.493,-10.071
0.035,0.019,0.512,-14.404,-6.287,-9.705
0.036,0.011,0.514,-15.076,-6.592,-9.277
0.039,0.003,0.515,-15.137,-6.592,-9.094
0.039,-0.005,0.523,-15.076,-6.714,-8.911
0.045,-0.006,0.525,-14.099,-6.287,-8.423
0.048,-0.012,0.528,-12.512,-5.920,-8.301
0.053,-0.016,0.501,-11.353,-3.784,-8.118
0.057,-0.022,0.529,-9.399,-3.540,-7.751
0.055,-0.025,0.522,-7.507,-2.075,-7.935
0.046,-0.028,0.512,-5.249,-2.136,-7.812
0.036,-0.027,0.505,-3.540,-1.160,-7.751
0.030,-0.020,0.503,-1.709,-2.502,-8.545
0.029,-0.015,0.504,-0.549,-1.770,-9.644
0.032,-0.014,0.504,0.610,-2.563,-10.498
0.036,-0.017,0.509,1.404,-2.380,-11.475
0.039,-0.021,0.520,2.258,-2.075,-11.719
0.043,-0.025,0.560,2.258,-2.441,-11.658
0.042,-0.029,0.535,2.197,-1.648,-11.475
0.043,-0.032,0.540,1.526,-1.282,-10.864
0.047,-0.034,0.540,0.244,-0.732,-9.949
0.051,-0.034,0.539,-0.549,-0.793,-8.972
0.056,-0.029,0.538,-2.014,-0.244,-7.996
0.058,-0.022,0.544,-2.991,-0.366,-6.592
0.060,-0.017,0.541,-4.211,0.488,-5.798
0.059,-0.009,0.536,-6.104,0.610,-4.333
0.059,-0.003,0.530,-7.202,0.305,-3.906
0.055,-0.001,0.524,-7.080,0.244,-3.845
0.053,-0.004,0.520,-6.836,0.427,-3.845
0.049,-0.002,0.516,-6.592,0.671,-3.662
0.046,-0.004,0.513,-5.493,0.610,-3.723
0.044,-0.003,0.512,-4.395,0.671,-4.211
0.039,0.001,0.512,-3.235,0.061,-4.761
0.036,0.002,0.516,-3.906,0.305,-5.371
0.039,-0.031,0.520,-3.845,0.610,-5.737
0.038,-0.002,0.520,-3.296,1.099,-6.531
0.036,-0.002,0.521,-3.723,0.977,-7.141
0.037,-0.006,0.525,-4.089,1.221,-7.812
0.037,-0.008,0.524,-4.211,1.465,-8.423
0.038,-0.013,0.522,-4.517,2.258,-8.789
0.034,-0.016,0.517,-4.883,2.258,-9.216
0.037,-0.026,0.513,-5.066,3.052,-9.094
0.035,-0.029,0.506,-4.456,2.869,-8.850
0.035,-0.031,0.498,-4.211,3.052,-8.362
0.036,-0.062,0.492,-3.296,3.296,-7.874
0.036,-0.029,0.486,-2.930,3.357,-7.690
0.031,-0.028,0.467,-2.563,-0.305,-5.188
0.030,-0.022,0.472,-2.563,-1.526,-4.700
0.033,-0.015,0.478,-2.136,-2.930,-4.578
0.033,-0.015,0.484,-2.319,-2.808,-4.272
0.030,-0.010,0.488,-2.197,-3.052,-3.540
0.027,-0.011,0.494,-2.258,-3.174,-4.089
0.029,-0.011,0.493,-1.404,-2.991,-4.333
0.032,-0.012,0.499,-0.793,-3.601,-4.456
0.037,-0.019,0.500,0.366,-3.174,-5.127
0.039,-0.022,0.501,1.160,-3.235,-5.249
0.041,-0.030,0.505,1.709,-2.502,-4.883
0.044,-0.034,0.505,2.319,-3.357,-4.883
0.045,-0.037,0.505,3.845,-3.296,-4.700
0.043,-0.042,0.510,4.150,-3.113,-4.761
0.045,-0.046,0.510,3.296,-3.479,-4.700
0.048,-0.051,0.508,2.441,-3.418,-4.089
0.052,-0.056,0.508,1.221,-4.517,-3.418
0.052,-0.057,0.511,0.366,-4.639,-2.380
0.052,-0.063,0.509,-1.282,-4.944,-1.038
0.049,-0.064,0.510,-1.465,-5.920,0.122
0.049,-0.063,0.517,-1.282,-6.470,1.770
0.053,-0.032,0.518,-1.038,-6.042,2.441
0.048,-0.053,0.519,-0.183,-5.981,3.418
0.046,-0.040,0.529,0.305,-5.798,4.028
0.041,-0.029,0.533,1.099,-5.249,4.272
0.034,-0.017,0.531,1.831,-4.578,4.028
0.027,-0.002,0.528,1.404,-4.883,3.662
0.025,0.007,0.519,2.625,-4.150,2.258
0.020,0.016,0.514,3.357,-4.761,0.244
0.028,0.017,0.517,3.052,-5.615,-0.610
0.036,0.027,0.522,3.479,-6.104,-2.014
0.032,0.024,0.521,4.639,-6.348,-3.296
0.031,0.017,0.528,4.700,-5.737,-4.456
0.029,0.015,0.538,4.578,-5.859,-5.005
0.032,0.009,0.543,4.395,-4.761,-5.615
0.033,0.001,0.544,3.479,-4.883,-6.226
0.037,-0.001,0.543,3.479,-4.700,-6.348
0.037,-0.005,0.548,3.113,-4.333,-6.714
0.040,-0.008,0.548,2.502,-4.089,-7.080
0.042,-0.008,0.548,1.709,-3.357,-7.385
0.040,-0.015,0.549,0.916,-3.174,-7.324
0.040,-0.016,0.549,0.610,-2.014,-7.874
0.039,-0.020,0.551,0.183,-2.319,-8.362
0.041,-0.021,0.551,-0.061,-1.709,-8.972
0.045,-0.028,0.550,-1.099,-1.526,-8.850
0.053,-0.035,0.548,-1.770,-1.038,-8.118
0.060,-0.041,0.545,-2.808,-1.587,-7.446
0.062,-0.043,0.542,-2.014,-0.793,-6.348
0.059,-0.045,0.538,-2.075,-0.916,-5.493
0.051,-0.044,0.536,-2.136,-0.916,-5.005
0.049,-0.045,0.535,-1.343,-1.038,-4.822
0.048,-0.043,0.536,-0.610,0.183,-4.089
0.047,-0.042,0.535,0.061,0.000,-3.723
0.047,-0.042,0.534,1.160,0.244,-3.723
0.045,-0.039,0.532,2.258,1.282,-2.991
0.046,-0.039,0.530,2.563,1.892,-2.502
0.044,-0.040,0.529,3.479,2.136,-1.770
0.039,-0.039,0.527,4.028,2.686,-1.282
0.039,-0.043,0.517,3.906,3.052,-0.732
0.034,-0.045,0.511,3.235,3.052,-0.244
0.036,-0.043,0.501,2.930,3.296,0.671
0.037,-0.043,0.493,2.319,2.136,1.404
0.037,-0.045,0.483,2.380,1.770,1.953
0.034,-0.045,0.479,2.136,0.610,2.686
0.031,-0.043,0.473,2.747,-0.305,3.540
0.026,-0.036,0.468,3.174,-1.404,3.784
0.023,-0.028,0.498,3.784,-2.747,3.479
0.022,-0.020,0.474,3.906,-3.967,3.418
0.021,-0.013,0.478,3.723,-5.249,2.380
0.021,-0.012,0.486,3.174,-6.042,1.648
0.024,-0.014,0.498,2.258,-6.958,0.916
0.027,-0.016,0.507,1.831,-7.690,0.061
0.030,-0.017,0.517,2.014,-7.202,-0.366
0.033,-0.015,0.522,2.075,-7.568,-0.793
0.036,-0.015,0.527,2.258,-6.836,-0.854
0.035,-0.012,0.534,2.319,-6.592,-1.221
0.037,-0.009,0.535,1.221,-6.592,-1.282
0.037,-0.008,0.539,1.221,-6.653,-1.770
0.041,-0.003,0.542,1.038,-6.592,-2.136
0.039,-0.003,0.543,0.183,-6.104,-2.319

0.718,-1.692,-0.213,-61.646,20.630,-304.260
0.735,-1.833,-0.228,-58.289,15.564,-288.696
0.747,-1.942,-0.243,-55.786,8.545,-267.273
0.720,-2.056,-0.259,-50.598,1.770,-247.559
0.740,-2.128,-0.259,-43.945,-6.226,-223.267
0.740,-2.219,-0.259,-35.217,-13.916,-201.904
0.758,-2.274,-0.241,-28.503,-21.790,-175.232
0.756,-2.335,-0.206,-18.127,-28.931,-151.733
0.749,-2.372,-0.166,-10.559,-35.339,-121.277
0.746,-2.383,-0.137,-1.648,-41.382,-91.003
0.744,-2.376,-0.106,8.545,-45.654,-65.857
0.743,-2.343,-0.079,18.921,-49.255,-36.499
0.737,-2.293,-0.039,33.691,-51.636,-14.771
0.715,-2.221,-0.012,47.729,-52.612,9.521
0.704,-2.153,0.024,66.101,-52.551,27.954
0.692,-2.078,0.061,81.238,-51.025,48.462
0.691,-2.005,0.105,95.825,-47.302,64.758
0.684,-1.916,0.134,111.694,-43.335,82.947
0.677,-1.838,0.170,139.099,-38.757,97.168
0.663,-1.751,0.193,135.315,-34.302,112.305
0.620,-1.444,0.182,161.072,-12.390,154.602
0.609,-1.394,0.146,164.368,-9.277,162.231
0.602,-1.339,0.113,167.786,-7.935,169.739
0.592,-1.296,0.082,170.654,-7.874,178.528
0.585,-1.252,0.065,174.438,-8.118,186.279
0.580,-1.218,0.049,177.551,-9.460,195.801
0.584,-1.176,0.037,181.274,-11.108,204.102
0.587,-1.138,0.041,184.021,-11.536,214.600
0.597,-1.093,0.040,185.547,-11.963,224.426
0.598,-1.051,0.029,186.340,-12.512,236.023
0.599,-0.998,0.008,186.523,-13.916,246.643
0.601,-0.940,-0.008,186.890,-16.602,257.935
0.599,-0.846,-0.025,186.096,-19.409,267.456
0.603,-0.803,-0.030,185.486,-22.766,278.137
0.609,-0.735,-0.032,182.922,-26.184,286.377
0.612,-0.656,-0.032,182.251,-28.625,297.058
0.607,-0.563,-0.040,181.458,-32.288,305.237
0.602,-0.510,-0.048,181.519,-36.255,315.186
0.594,-0.389,-0.048,182.251,-40.955,322.632
0.560,0.078,0.023,184.448,-53.833,332.458
0.544,0.170,0.054,182.251,-55.359,329.895
0.524,0.273,0.071,178.406,-57.251,326.721
0.506,0.324,0.096,175.964,-58.411,324.341
0.498,0.428,0.129,172.607,-58.716,322.327
0.485,0.487,0.149,169.250,-57.800,319.092
0.469,0.560,0.165,165.466,-57.068,315.857
0.439,0.633,0.171,161.438,-55.969,310.669
0.399,0.687,0.175,156.189,-55.725,304.871
0.326,0.721,0.171,147.888,-55.725,282.471
0.266,0.728,0.156,125.549,-58.899,289.734
0.226,0.736,0.142,135.742,-63.660,284.790
0.207,0.769,0.150,134.155,-72.388,281.067
0.208,0.830,0.187,134.155,-80.017,279.358
0.158,0.882,0.251,132.935,-84.717,278.503
0.216,1.045,0.325,131.165,-93.262,275.330
0.190,1.150,0.420,126.343,-107.788,271.484
0.108,1.227,0.471,119.873,-100.769,263.489
0.087,1.321,0.571,111.267,-97.656,253.601
0.071,1.409,0.639,79.834,-90.698,246.765
0.031,1.485,0.666,76.721,-85.510,232.544
-0.015,1.504,0.688,68.237,-87.585,220.825
-0.047,1.562,0.696,63.538,-92.834,208.130
-0.091,1.753,0.897,24.780,-86.304,144.653
-0.096,1.731,0.910,13.672,-77.454,129.517
-0.129,1.686,0.906,5.615,-73.486,111.450
-0.130,1.659,0.901,1.282,-71.960,98.999
-0.123,1.665,0.895,-7.202,-72.021,90.759
-0.097,1.687,0.920,-16.907,-72.510,82.520
-0.072,1.716,0.955,-30.884,-70.862,74.585
-0.073,1.738,0.984,-42.786,-66.711,62.500
-0.094,1.744,0.990,-57.190,-63.904,51.575
-0.107,1.728,0.989,-69.885,-60.669,38.025
-0.101,1.697,0.984,-82.153,-57.312,26.489
-0.091,1.669,0.983,-90.942,-51.575,12.817
-0.079,1.626,0.961,-100.037,-48.096,-14.404
-0.073,1.580,0.937,-105.774,-44.495,-12.573
-0.067,1.523,0.922,-109.070,-42.786,-25.391
-0.049,1.474,0.908,-110.596,-39.978,-35.278
-0.024,1.422,0.899,-111.328,-36.865,-46.448
0.002,1.382,0.890,-111.633,-31.433,-54.810
0.032,1.330,0.883,-112.549,-26.306,-64.697
0.052,1.290,0.869,-113.831,-19.165,-72.266
0.065,1.239,0.849,-114.685,-14.404,-81.177
0.077,1.201,0.807,-116.089,-9.277,-88.135
0.150,1.036,0.628,-126.038,-3.540,-117.554
0.175,1.023,0.607,-127.869,-3.296,-125.000
0.193,0.944,0.587,-128.784,-2.502,-131.775
0.215,0.923,0.568,-128.601,-1.038,-138.855
0.221,0.874,0.542,-127.319,1.343,-144.836
0.232,0.820,0.520,-124.878,2.991,-152.039
0.228,0.775,0.482,-121.399,4.761,-158.752
0.224,0.717,0.453,-117.310,6.042,-166.931
0.221,0.668,0.428,-113.342,6.409,-173.157
0.224,0.607,0.413,-109.619,6.287,-181.580
0.226,0.541,0.416,-107.483,7.202,-188.171
0.238,0.443,0.418,-104.553,7.324,-194.702
0.250,0.353,0.409,-102.722,9.338,-198.059
0.263,0.236,0.388,-99.121,9.949,-199.829
0.274,0.143,0.362,-94.788,11.230,-200.928
0.269,0.030,0.330,-89.294,10.132,-201.111
0.243,-0.069,0.315,-84.900,8.911,-200.989
0.213,-0.182,0.310,-79.712,6.592,-199.768
0.187,-0.280,0.343,-76.599,4.272,-197.449
0.175,-0.388,0.291,-71.960,1.709,-194.275
0.177,-0.464,0.264,-68.481,-2.197,-188.416
0.185,-0.542,0.234,-63.049,-7.996,-183.167
0.190,-0.591,0.224,-58.594,-14.221,-176.147
0.145,-0.741,0.289,-30.945,-28.687,-154.907
0.133,-0.788,0.308,-22.034,-30.579,-151.855
0.132,-0.836,0.320,-15.442,-30.640,-147.095
0.136,-0.885,0.319,-7.019,-32.043,-139.099
0.143,-0.918,0.323,0.549,-33.630,-131.042
0.141,-0.937,0.327,4.395,-37.231,-120.361
0.136,-0.943,0.333,10.315,-40.527,-110.657
0.123,-0.933,0.345,13.916,-44.556,-100.342
0.109,-0.919,0.375,15.381,-49.133,-91.736
0.099,-0.901,0.413,14.465,-54.199,-81.665
0.093,-0.890,0.461,11.658,-57.739,-74.646
0.085,-0.892,0.495,8.362,-61.523,-65.918
0.092,-0.895,0.539,4.211,-64.453,-57.617
0.101,-0.889,0.575,1.038,-65.735,-47.546
0.105,-0.874,0.618,-2.686,-65.735,-39.063
0.101,-0.845,0.651,-3.845,-63.965,-29.175
0.091,-0.809,0.682,-4.028,-61.646,-22.705
0.083,-0.757,0.701,-3.723,-58.716,-16.541
0.078,-0.710,0.720,-4.761,-55.054,-12.634
0.079,-0.661,0.736,-6.409,-52.490,-9.644
0.083,-0.597,0.752,-8.362,-49.561,-6.836
0.090,-0.601,0.767,-9.155,-46.082,-3.967
0.093,-0.583,0.782,-10.376,-41.626,-1.099
0.090,-0.558,0.787,-11.169,-37.720,2.441
0.085,-0.529,0.779,-10.559,-33.325,5.127
0.065,-0.360,0.729,-6.958,-22.339,9.949
0.065,-0.329,0.727,-6.897,-20.508,9.888
0.066,-0.302,0.724,-6.531,-19.165,9.888
0.066,-0.288,0.722,-5.859,-17.273,9.460
0.065,-0.268,0.721,-4.578,-14.832,9.521
0.063,-0.251,0.716,-3.052,-12.573,9.460
0.066,-0.227,0.714,-0.732,-9.766,9.277
0.064,-0.205,0.712,0.366,-7.568,9.827
0.062,-0.186,0.708,1.404,-4.822,9.705
0.062,-0.170,0.699,2.502,-2.625,9.949
0.062,-0.152,0.686,2.808,-0.183,10.376
0.067,-0.133,0.673,1.587,1.099,11.108
0.062,-0.119,0.656,1.770,3.113,12.024
0.061,-0.105,0.641,1.648,3.601,13.794
0.055,-0.088,0.630,1.892,5.005,14.526
0.048,-0.067,0.614,2.014,5.493,15.259
0.040,-0.050,0.567,0.977,6.104,15.808
0.034,-0.032,0.582,0.610,4.822,16.235
0.031,-0.012,0.573,0.244,4.456,16.052
0.026,0.003,0.568,-1.465,3.540,16.174
0.019,0.021,0.562,-2.197,2.686,15.320
0.016,0.060,0.556,-3.479,2.319,14.099
0.014,0.038,0.551,-5.493,2.197,13.184
0.010,0.042,0.548,-5.493,1.404,11.780
0.005,0.043,0.543,-6.348,2.075,9.521
0.001,0.042,0.537,-6.958,1.038,7.996
0.001,0.037,0.535,-7.080,1.892,6.836
0.004,0.029,0.531,-6.592,1.099,5.249
0.003,0.021,0.524,-6.531,1.160,3.906
0.009,0.014,0.521,-6.653,0.793,2.991
0.014,0.011,0.518,-6.348,0.549,2.136
0.015,0.008,0.514,-4.944,1.099,1.343
0.010,0.003,0.509,-4.150,0.244,1.221
0.008,0.002,0.503,-2.930,0.305,0.610
0.003,0.003,0.497,-2.136,-0.244,0.061
0.003,0.004,0.499,-0.854,0.061,-0.488
0.007,0.008,0.496,0.854,-0.305,-1.099
0.005,0.014,0.501,2.686,-0.549,-1.770
0.008,0.013,0.501,4.456,-0.488,-2.319
0.007,0.014,0.504,5.859,-0.366,-2.808
0.004,0.012,0.505,6.042,-0.061,-3.174
0.007,0.009,0.502,6.348,-1.099,-3.418
0.005,0.007,0.506,5.798,-1.160,-3.540
0.008,0.002,0.508,4.578,-1.282,-3.418
0.007,-0.000,0.509,3.479,-1.221,-3.052
0.006,-0.000,0.498,1.648,-1.282,-2.991
0.001,-0.003,0.493,0.427,-2.075,-3.296
-0.002,-0.009,0.488,-0.732,-3.540,-3.540
0.002,-0.018,0.491,-1.770,-5.249,-3.662
0.005,-0.023,0.497,-3.235,-6.104,-3.906
0.008,-0.029,0.505,-4.883,-7.507,-4.028
0.008,-0.034,0.514,-4.944,-7.996,-4.395
0.012,-0.038,0.524,-5.249,-7.935,-4.456
0.018,-0.041,0.530,-5.798,-8.301,-4.272
0.020,-0.040,0.532,-4.883,-7.812,-4.333
0.024,-0.040,0.534,-4.456,-8.728,-4.761
0.020,-0.038,0.537,-4.028,-7.446,-5.066
0.019,-0.031,0.541,-2.502,-7.874,-5.615
0.019,-0.023,0.542,-0.488,-7.202,-6.836
0.019,-0.026,0.542,-0.061,-7.263,-7.690
0.033,-0.025,0.552,-0.488,-6.836,-7.812
0.043,-0.019,0.559,-1.038,-6.653,-7.507
0.047,-0.018,0.564,-1.831,-5.554,-7.263
0.047,-0.015,0.564,-2.808,-5.371,-7.385
0.042,-0.014,0.564,-2.930,-4.150,-7.141
0.040,-0.016,0.561,-3.296,-3.784,-7.080
0.039,-0.015,0.557,-3.967,-3.601,-7.751
0.039,-0.017,0.556,-4.272,-3.357,-7.996
0.040,-0.022,0.554,-4.578,-3.052,-8.179
0.043,-0.033,0.554,-4.333,-2.686,-8.240
0.047,-0.040,0.559,-3.967,-1.953,-7.568
0.054,-0.049,0.566,-3.540,-1.404,-7.141
0.056,-0.054,0.562,-3.418,0.305,-6.104
0.054,-0.066,0.557,-2.869,1.648,-5.066
0.053,-0.076,0.550,-1.709,3.235,-3.845
0.049,-0.079,0.544,-0.122,2.625,-3.845
0.045,-0.078,0.539,2.075,4.089,-2.808
0.044,-0.081,0.537,3.662,3.723,-2.686
0.046,-0.083,0.540,4.028,5.127,-2.380
0.046,-0.082,0.537,3.967,4.761,-1.831
0.047,-0.083,0.503,3.906,5.554,-0.610
0.046,-0.079,0.522,3.113,5.005,0.061
0.044,-0.076,0.511,3.479,4.150,0.427
0.039,-0.071,0.506,3.235,3.357,1.221
0.037,-0.062,0.501,2.625,1.587,1.038
0.035,-0.059,0.503,3.113,0.427,0.854
0.032,-0.052,0.505,3.357,-0.061,0.610
0.027,-0.050,0.510,3.967,-0.732,0.061
0.023,-0.044,0.510,4.517,-0.977,-0.610
0.022,-0.039,0.515,5.127,-1.343,-1.526
0.021,-0.041,0.518,5.859,-1.099,-2.197
0.022,-0.041,0.520,6.042,-1.343,-2.991
0.023,-0.044,0.519,6.409,-0.732,-3.174
0.026,-0.045,0.518,6.409,-0.977,-3.662
0.026,-0.048,0.522,6.165,-0.488,-3.967
0.024,-0.049,0.525,5.310,-0.610,-3.601
0.023,-0.051,0.522,4.517,-0.305,-3.357
0.024,-0.054,0.522,3.845,-0.549,-3.540
0.019,-0.059,0.519,3.418,-0.549,-3.235
0.020,-0.063,0.518,3.113,-0.427,-3.235
0.021,-0.065,0.515,2.747,-0.671,-3.479
0.021,-0.063,0.516,2.991,-1.343,-3.601
0.022,-0.064,0.518,3.052,-1.526,-3.906
0.021,-0.065,0.520,2.625,-1.099,-3.662
0.022,-0.067,0.515,2.747,-1.221,-3.845
0.025,-0.070,0.517,2.991,-1.648,-3.601
0.022,-0.071,0.516,3.723,-2.075,-3.601
0.024,-0.066,0.515,3.479,-2.502,-3.052
0.021,-0.060,0.520,3.784,-2.930,-2.991
0.023,-0.051,0.526,4.028,-3.845,-3.723
0.031,-0.042,0.533,3.967,-4.028,-3.113
0.036,-0.035,0.536,2.747,-5.005,-3.052
0.039,-0.030,0.538,1.587,-4.639,-3.113
0.035,-0.025,0.544,0.610,-4.578,-2.441
0.031,-0.032,0.547,-1.221,-4.028,-2.869
0.031,-0.031,0.546,-1.648,-3.723,-2.747
0.033,-0.033,0.546,-1.953,-3.235,-2.930
0.033,-0.033,0.544,-2.747,-3.235,-2.686
0.036,-0.037,0.545,-2.930,-3.174,-2.197
0.037,-0.045,0.547,-3.601,-2.441,-1.953
0.037,-0.047,0.542,-4.639,-2.014,-1.526
0.039,-0.050,0.541,-4.761,-2.014,-1.282
0.034,-0.055,0.535,-4.150,-1.343,-1.282
0.034,-0.059,0.533,-4.089,-1.099,-1.343
0.032,-0.061,0.530,-3.418,-0.671,-1.343
0.031,-0.067,0.530,-3.174,-0.488,-1.221
0.034,-0.070,0.528,-3.357,-0.488,-0.854
0.033,-0.070,0.525,-2.136,-0.610,-0.610
0.034,-0.069,0.521,-1.770,-0.671,-0.366
0.030,-0.066,0.520,-0.793,-0.854,-0.671
0.030,-0.063,0.515,-0.610,-1.465,-0.671
0.030,-0.056,0.516,0.305,-1.526,-0.488
0.031,-0.054,0.516,-0.977,-1.770,-0.732
0.032,-0.055,0.522,-1.221,-2.380,-1.099
0.032,-0.055,0.526,-1.404,-1.953,-1.099
0.031,-0.057,0.529,-1.099,-1.465,-0.732
0.032,-0.060,0.529,-0.732,-1.221,-0.610
0.028,-0.061,0.528,0.671,-0.305,-0.244
0.028,-0.058,0.522,1.587,-0.183,-0.061
0.027,-0.057,0.522,2.136,0.488,-0.061
0.029,-0.052,0.519,2.930,0.610,0.000
0.027,-0.047,0.521,2.930,0.854,-0.061
0.028,-0.046,0.521,3.662,0.610,-0.061
0.030,-0.047,0.517,3.052,0.977,-0.488
0.027,-0.047,0.519,2.319,0.732,-0.610
0.026,-0.049,0.517,2.258,0.854,-0.916
0.025,-0.050,0.512,1.953,-0.305,-0.916
0.023,-0.048,0.513,1.587,-0.305,-1.038
0.025,-0.048,0.507,1.648,-1.221,-1.465
0.024,-0.047,0.502,0.732,-1.587,-1.770
0.026,-0.046,0.504,0.671,-2.197,-1.526
0.032,-0.050,0.500,0.366,-2.991,-1.465
0.032,-0.052,0.501,-0.183,-3.235,-1.038
0.030,-0.056,0.505,-0.122,-3.357,-0.977
0.026,-0.059,0.506,0.427,-3.357,-0.732
0.026,-0.060,0.508,0.916,-3.662,-0.488
0.026,-0.055,0.514,0.916,-3.723,-0.244
0.031,-0.052,0.521,0.916,-3.906,-0.183
0.030,-0.046,0.527,-0.305,-3.601,0.488
0.030,-0.050,0.532,-1.526,-3.479,0.305
0.033,-0.048,0.530,-2.991,-3.235,0.488
0.033,-0.053,0.526,-3.723,-3.479,0.732
0.033,-0.051,0.523,-4.150,-3.479,0.610
0.033,-0.054,0.517,-4.639,-3.967,0.488
0.033,-0.054,0.508,-4.822,-4.822,0.305
0.032,-0.060,0.508,-5.188,-6.470,0.183
0.034,-0.065,0.514,-4.456,-7.263,-0.549
0.040,-0.067,0.527,-4.517,-7.812,-0.671

0.817,-1.843,-0.034,-36.011,-29.602,-292.603
0.825,-1.951,-0.037,-42.969,-37.598,-267.822
0.824,-2.042,-0.038,-47.180,-44.617,-235.840
0.818,-2.118,-0.036,-47.607,-52.429,-208.801
0.799,-2.118,-0.024,-46.692,-58.533,-177.063
0.779,-2.128,-0.005,-42.664,-65.063,-152.039
0.759,-2.125,0.020,-38.818,-70.190,-122.986
0.750,-2.106,0.061,-34.424,-74.463,-100.098
0.738,-2.086,0.101,-30.212,-77.087,-74.036
0.730,-2.051,0.146,-23.376,-77.881,-53.650
0.709,-2.011,0.214,-17.456,-78.003,-31.189
0.703,-1.959,0.219,-8.606,-76.233,-14.160
0.685,-1.918,0.249,0.000,-72.693,4.639
0.674,-1.872,0.270,11.353,-68.115,19.714
0.652,-1.829,0.290,21.545,-62.744,36.255
0.637,-1.777,0.303,32.532,-56.396,49.866
0.619,-1.730,0.308,41.077,-48.950,64.880
0.608,-1.677,0.307,51.331,-42.114,77.454
0.595,-1.628,0.294,60.913,-34.607,91.309
0.582,-1.561,0.266,71.411,-28.809,102.295
0.571,-1.499,0.230,80.139,-24.963,114.014
0.553,-1.211,0.096,103.455,-23.682,152.283
0.547,-1.149,0.081,104.309,-27.161,159.851
0.541,-1.109,0.078,103.943,-31.677,169.006
0.531,-1.067,0.080,103.577,-34.790,177.124
0.514,-1.032,0.078,104.248,-38.208,187.317
0.507,-0.992,0.085,106.018,-41.809,195.496
0.499,-0.935,0.091,109.497,-42.969,204.346
0.490,-0.853,0.106,115.051,-44.922,211.792
0.474,-0.819,0.112,120.422,-44.006,219.238
0.455,-0.725,0.112,127.258,-44.189,224.854
0.435,-0.679,0.104,132.690,-44.312,230.652
0.420,-0.610,0.101,138.367,-45.654,234.253
0.412,-0.527,0.108,142.151,-46.570,236.938
0.412,-0.460,0.120,144.348,-46.631,238.770
0.408,-0.396,0.136,143.799,-46.875,240.906
0.401,-0.353,0.149,142.944,-46.814,243.164
0.395,-0.307,0.154,140.564,-47.058,246.399
0.389,-0.267,0.160,138.000,-47.241,249.451
0.383,-0.221,0.166,135.315,-47.424,251.587
0.345,-0.085,0.142,120.300,-51.697,260.437
0.337,-0.052,0.129,117.126,-55.420,261.780
0.328,-0.005,0.117,113.586,-58.899,262.878
0.315,0.037,0.114,111.450,-64.880,261.902
0.303,0.079,0.121,110.962,-68.237,260.620
0.284,0.110,0.128,112.427,-73.547,257.874
0.273,0.146,0.145,113.525,-76.721,256.348
0.267,0.171,0.165,114.319,-80.688,256.470
0.261,0.246,0.189,115.784,-86.853,257.446
0.249,0.290,0.225,118.042,-92.468,258.728
0.239,0.397,0.285,117.249,-98.267,259.888
0.302,0.422,0.348,115.173,-103.333,260.315
0.216,0.552,0.450,110.657,-105.835,259.583
0.248,0.649,0.526,104.187,-105.103,259.216
0.216,0.733,0.566,97.046,-103.760,254.944
0.200,0.804,0.650,88.013,-102.600,249.878
0.167,0.855,0.709,76.660,-95.398,245.728
0.146,0.929,0.726,58.411,-87.341,241.699
0.080,0.960,0.695,46.326,-86.426,233.582
0.047,1.016,0.670,41.321,-94.849,225.281
0.015,1.070,0.677,42.053,-106.079,215.393
0.017,1.184,0.740,37.598,-114.990,206.787
0.025,1.244,0.813,28.076,-115.662,193.542
-0.082,1.238,0.969,-2.930,-90.698,137.329
-0.089,1.232,0.971,-3.845,-88.013,127.441
-0.078,1.244,0.982,-4.761,-87.341,117.310
-0.068,1.265,1.010,-5.859,-83.435,108.154
-0.063,1.286,1.036,-7.324,-64.209,96.802
-0.060,1.291,1.075,-8.850,-71.533,86.975
-0.063,1.275,1.095,-8.362,-47.668,74.829
-0.068,1.220,1.099,-5.310,-53.406,64.148
-0.079,1.226,1.084,-2.869,-45.044,51.575
-0.083,1.201,1.053,0.000,-36.255,41.565
-0.085,1.172,1.025,0.000,-29.480,29.541
-0.088,1.142,0.982,-0.549,-24.109,20.386
-0.071,1.101,0.948,-2.808,-22.156,10.315
-0.056,1.075,0.913,-5.676,-20.508,2.869
-0.032,1.037,0.895,-8.911,-19.775,-4.517
-0.007,1.001,0.879,-13.000,-18.127,-9.155
0.019,0.958,0.861,-15.991,-16.113,-13.916
0.031,0.923,0.838,-20.569,-14.160,-17.334
0.037,0.887,0.809,-24.170,-12.756,-21.362
0.037,0.860,0.764,-28.564,-12.695,-24.902
0.040,0.834,0.724,-31.982,-13.123,-28.503
0.044,0.816,0.681,-36.621,-16.479,-31.372
0.062,0.802,0.657,-40.039,-18.616,-34.180
0.080,0.793,0.640,-44.495,-22.217,-37.048
0.101,0.781,0.631,-48.706,-23.315,-39.734
0.114,0.770,0.626,-51.147,-23.987,-41.748
0.124,0.752,0.622,-53.223,-23.743,-45.227
0.126,0.734,0.614,-54.871,-22.949,-47.852
0.136,0.651,0.500,-53.467,-16.968,-59.082
0.134,0.647,0.479,-52.246,-18.250,-62.256
0.132,0.638,0.458,-51.636,-20.264,-65.186
0.131,0.625,0.455,-51.575,-22.095,-68.726
0.133,0.612,0.458,-52.551,-23.682,-71.899
0.135,0.588,0.466,-54.443,-24.170,-75.562
0.142,0.558,0.469,-56.396,-24.231,-77.820
0.146,0.516,0.450,-56.763,-23.376,-79.041
0.138,0.484,0.417,-56.580,-23.010,-79.834
0.128,0.468,0.385,-57.068,-24.780,-81.116
0.115,0.461,0.363,-57.251,-28.381,-82.764
0.104,0.448,0.362,-57.556,-32.043,-85.938
0.095,0.433,0.379,-58.472,-35.095,-89.905
0.097,0.399,0.404,-58.411,-36.255,-94.421
0.096,0.360,0.424,-56.152,-36.072,-98.328
0.095,0.310,0.433,-53.345,-34.241,-102.478
0.096,0.277,0.426,-47.913,-32.104,-105.408
0.091,0.244,0.413,-42.786,-31.250,-108.826
0.087,0.215,0.412,-38.147,-30.884,-111.938
0.082,0.188,0.413,-34.180,-31.006,-115.540
0.075,0.166,0.424,-29.846,-31.555,-119.690
0.059,0.120,0.442,-26.428,-31.311,-124.817
0.053,0.082,0.465,-24.109,-30.884,-129.028
0.055,-0.219,0.468,-21.912,-28.809,-136.169
0.067,-0.253,0.463,-22.766,-30.151,-134.399
0.075,-0.298,0.457,-25.818,-32.532,-131.470
0.086,-0.347,0.459,-29.541,-35.889,-126.953
0.091,-0.390,0.464,-34.729,-38.635,-122.192
0.093,-0.438,0.467,-38.940,-41.504,-116.516
0.090,-0.471,0.474,-42.847,-44.067,-110.901
0.078,-0.507,0.477,-44.861,-46.204,-104.614
0.068,-0.535,0.478,-47.119,-47.974,-99.243
0.052,-0.560,0.483,-48.645,-50.415,-93.384
0.040,-0.587,0.488,-49.072,-52.124,-88.318
0.036,-0.602,0.495,-48.889,-53.833,-82.153
0.040,-0.614,0.504,-48.218,-55.481,-76.843
0.046,-0.618,0.512,-47.180,-56.763,-70.801
0.053,-0.617,0.524,-44.617,-57.373,-65.613
0.054,-0.609,0.538,-41.260,-57.678,-60.791
0.052,-0.598,0.561,-37.903,-57.129,-57.678
0.047,-0.594,0.579,-34.607,-56.274,-54.260
0.045,-0.591,0.605,-30.762,-55.054,-51.880
0.067,-0.566,0.643,-16.357,-45.837,-40.283
0.073,-0.551,0.646,-13.672,-44.495,-37.354
0.084,-0.535,0.651,-11.108,-43.457,-34.058
0.089,-0.524,0.665,-9.338,-42.419,-31.250
0.093,-0.515,0.676,-8.301,-41.504,-27.161
0.101,-0.501,0.693,-8.667,-39.978,-23.254
0.107,-0.487,0.700,-9.644,-38.391,-18.127
0.111,-0.472,0.704,-10.803,-36.621,-14.038
0.115,-0.447,0.703,-10.315,-36.072,-9.277
0.123,-0.413,0.703,-10.681,-34.729,-5.615
0.124,-0.368,0.707,-10.742,-33.752,-2.136
0.123,-0.334,0.714,-10.010,-32.593,-0.305
0.120,-0.301,0.720,-10.193,-30.884,1.282
0.119,-0.272,0.730,-8.789,-28.809,2.258
0.116,-0.241,0.730,-7.263,-25.696,3.418
0.115,-0.216,0.727,-4.333,-21.851,4.150
0.119,-0.186,0.720,-2.258,-19.287,3.784
0.124,-0.128,0.711,0.427,-15.930,3.113
0.124,-0.133,0.708,2.625,-14.221,2.014
0.121,-0.118,0.700,3.174,-11.108,0.854
0.115,-0.107,0.692,3.296,-9.094,-0.122
0.114,-0.107,0.685,2.991,-7.507,-0.549
0.109,-0.108,0.675,2.625,-5.493,-0.671
0.106,-0.108,0.662,1.282,-4.150,-0.549
0.100,-0.100,0.654,-0.305,-2.869,0.000
0.101,-0.096,0.642,-0.427,-1.465,0.732
0.099,-0.095,0.632,0.305,0.305,1.465
0.098,-0.089,0.602,1.648,1.892,1.587
0.095,-0.080,0.575,2.380,2.197,1.526
0.093,-0.075,0.557,1.831,1.343,1.526
0.089,-0.068,0.550,-0.244,0.305,1.953
0.089,-0.064,0.555,-2.014,-1.343,2.930
0.091,-0.068,0.561,-4.333,-2.319,3.418
0.089,-0.071,0.593,-5.371,-2.441,4.211
0.087,-0.072,0.562,-6.165,-2.319,4.822
0.078,-0.070,0.560,-7.446,-2.075,5.554
0.075,-0.063,0.555,-6.836,-1.770,5.859
0.070,-0.052,0.549,-5.005,-1.831,5.798
0.065,-0.039,0.537,-3.662,-1.343,5.432
0.068,-0.028,0.530,-2.625,-1.709,4.761
0.067,-0.020,0.522,-1.709,-2.197,3.784
0.067,-0.013,0.518,-0.366,-3.174,2.747
0.068,-0.009,0.521,0.305,-4.150,2.319
0.068,-0.004,0.530,0.916,-4.639,0.793
0.071,-0.005,0.544,2.075,-5.127,-0.305
0.075,-0.013,0.551,3.052,-4.028,-1.282
0.074,-0.019,0.559,3.967,-2.747,-1.587
0.076,-0.025,0.563,4.578,-1.343,-1.831
0.072,-0.028,0.556,5.188,-0.488,-1.404
0.074,-0.029,0.547,5.432,0.427,-1.099
0.070,-0.022,0.536,4.639,0.183,-0.793
0.065,-0.019,0.529,3.357,-0.183,-0.305
0.067,-0.016,0.526,1.892,-0.854,-0.061
0.064,-0.015,0.527,0.671,-1.221,0.122
0.064,-0.013,0.525,-0.488,-1.709,-0.061
0.064,-0.012,0.523,-2.014,-1.587,0.000
0.065,-0.015,0.523,-3.479,-1.831,0.488
0.064,-0.016,0.519,-3.784,-2.258,0.366
0.064,-0.014,0.521,-4.150,-2.319,0.244
0.060,-0.011,0.521,-3.784,-2.014,0.061
0.057,-0.009,0.518,-3.479,-2.014,-0.366
0.064,-0.006,0.525,-1.221,-0.122,-3.601
0.063,-0.011,0.524,0.061,0.244,-4.333
0.066,-0.016,0.526,0.793,0.732,-5.127
0.067,-0.019,0.528,1.343,1.221,-5.371
0.068,-0.020,0.527,2.075,1.221,-6.042
0.073,-0.022,0.531,2.441,1.160,-6.348
0.077,-0.023,0.532,2.319,1.343,-6.470
0.081,-0.024,0.534,2.441,1.953,-6.226
0.084,-0.026,0.533,2.136,2.441,-6.165
0.086,-0.026,0.535,2.075,2.380,-6.165
0.089,-0.026,0.532,1.709,2.747,-5.798
0.091,-0.026,0.530,2.625,2.930,-5.737
0.089,-0.025,0.524,2.930,3.662,-5.737
0.086,-0.025,0.519,3.723,3.601,-5.737
0.085,-0.024,0.518,4.089,3.906,-5.920
0.086,-0.026,0.517,4.272,3.845,-6.104
0.088,-0.030,0.516,4.272,3.906,-5.920
0.089,-0.032,0.514,3.967,3.723,-5.859
0.090,-0.034,0.515,3.052,3.357,-5.737
0.090,-0.042,0.514,2.197,3.418,-5.310
0.090,-0.044,0.513,1.526,3.235,-4.944
0.088,-0.052,0.505,1.038,2.869,-4.700
0.085,-0.059,0.502,0.671,2.747,-4.333
0.082,-0.062,0.469,0.793,2.686,-3.662
0.080,-0.068,0.499,1.343,2.258,-3.235
0.078,-0.072,0.496,2.014,2.319,-2.319
0.078,-0.073,0.497,2.747,2.075,-1.770
0.079,-0.073,0.492,3.479,1.709,-0.793
0.079,-0.073,0.493,4.333,1.526,0.061
0.077,-0.070,0.490,4.944,1.648,1.038
0.073,-0.069,0.488,5.615,1.282,1.892
0.073,-0.064,0.487,6.592,1.038,3.174
0.073,-0.058,0.489,6.958,0.732,3.540
0.070,-0.050,0.488,7.202,0.305,4.089
0.067,-0.047,0.489,7.263,-0.183,5.310
0.068,-0.038,0.488,6.714,-1.099,5.981
0.069,-0.029,0.490,5.859,-1.831,6.653
0.066,-0.022,0.498,5.249,-2.930,6.958
0.066,-0.015,0.529,4.333,-3.906,7.202
0.066,-0.005,0.506,3.479,-4.761,7.385
0.063,0.003,0.508,3.540,-5.127,6.714
0.062,0.010,0.512,2.930,-5.554,6.226
0.061,0.018,0.519,2.380,-5.859,4.883
0.061,0.022,0.521,1.343,-6.226,3.723
0.062,0.022,0.525,0.366,-6.348,2.686
0.065,0.018,0.531,-1.038,-6.348,1.892
0.067,0.017,0.535,-2.502,-6.775,0.977
0.068,0.016,0.534,-3.418,-7.080,-0.183
0.069,0.015,0.537,-4.333,-6.958,-0.977
0.072,0.008,0.538,-5.005,-6.775,-2.319
0.074,0.007,0.538,-5.676,-6.348,-3.052
0.074,0.001,0.539,-4.883,-6.531,-3.967
0.078,-0.006,0.539,-5.066,-6.287,-4.944
0.079,-0.011,0.539,-5.310,-6.287,-5.676
0.081,-0.020,0.544,-5.432,-5.493,-6.104
0.084,-0.026,0.543,-5.615,-5.249,-6.531
0.086,-0.034,0.543,-5.554,-4.883,-6.653
0.086,-0.037,0.542,-5.676,-4.333,-6.042
0.088,-0.041,0.542,-5.737,-4.150,-5.920
0.087,-0.046,0.541,-5.676,-4.150,-5.676
0.085,-0.048,0.539,-5.615,-3.723,-5.493
0.085,-0.047,0.538,-4.944,-3.418,-4.944
0.088,-0.045,0.538,-5.066,-3.052,-4.456
0.084,-0.044,0.536,-4.822,-2.625,-4.333
0.085,-0.043,0.533,-5.066,-2.380,-4.150
0.083,-0.045,0.530,-5.066,-1.953,-3.662
0.081,-0.049,0.526,-5.310,-2.563,-3.357
0.083,-0.054,0.524,-5.310,-2.197,-2.747
0.086,-0.055,0.520,-4.883,-2.502,-2.258
0.086,-0.056,0.522,-4.333,-2.014,-1.343
0.088,-0.050,0.521,-4.211,-2.014,-0.671
0.087,-0.047,0.520,-3.662,-1.648,-0.366
0.086,-0.041,0.516,-3.113,-1.892,-0.244
0.084,-0.039,0.514,-3.174,-2.075,-0.122
0.084,-0.035,0.516,-2.930,-2.441,-0.549
0.083,-0.034,0.519,-2.991,-2.625,-0.916
0.088,-0.036,0.521,-2.136,-2.747,-1.099
0.085,-0.039,0.526,-1.831,-2.441,-1.099
0.088,-0.042,0.530,-1.221,-2.075,-1.343
0.089,-0.043,0.535,-0.732,-1.587,-1.343
0.086,-0.045,0.535,-0.244,-0.916,-1.404
0.088,-0.047,0.537,0.305,0.061,-1.221
0.089,-0.051,0.532,0.122,0.977,-0.854
0.089,-0.052,0.527,0.244,0.977,-0.671
0.091,-0.052,0.523,0.977,0.854,-0.183
0.090,-0.047,0.517,0.854,0.549,0.305
0.087,-0.043,0.516,0.183,0.244,0.671
0.086,-0.039,0.517,-15.442,-0.366,0.793
0.082,-0.038,0.519,-0.183,-0.122,0.977
0.084,-0.039,0.514,-0.732,-0.244,0.977
0.088,-0.036,0.514,-0.488,0.000,0.854
0.091,-0.034,0.515,15.259,0.183,0.732
0.089,-0.033,0.516,0.122,-0.061,0.671
0.084,-0.035,0.516,0.793,0.549,0.366
0.083,-0.036,0.520,0.305,0.549,0.305
0.082,-0.041,0.521,-0.061,0.671,0.061
0.085,-0.038,0.521,-0.427,0.671,0.061
0.086,-0.040,0.518,-0.977,0.671,0.122
0.086,-0.044,0.513,-1.404,0.854,0.122
0.087,-0.047,0.510,-2.075,0.854,0.122
0.086,-0.050,0.507,-1.465,0.732,0.244
0.079,-0.051,0.507,-1.465,0.427,-0.061
0.074,-0.050,0.504,-0.366,0.366,-0.488
0.074,-0.047,0.502,0.305,-0.183,-1.099
0.074,-0.049,0.498,0.610,-0.244,-1.709
0.072,-0.052,0.496,0.977,-1.160,-2.625

0.720,-1.757,0.111,-35.095,-12.451,-184.265
0.718,-1.799,0.107,-39.368,-18.188,-164.856
0.714,-1.840,0.107,-41.504,-24.231,-141.296
0.709,-1.865,0.118,-42.297,-28.076,-122.253
0.699,-1.889,0.128,-40.833,-30.823,-99.243
0.689,-1.900,0.144,-37.476,-32.288,-81.116
0.682,-1.915,0.156,-32.288,-32.654,-59.570
0.674,-1.916,0.163,-25.085,-33.142,-41.504
0.668,-1.898,0.171,-17.212,-32.288,-20.386
0.667,-1.870,0.183,-6.470,-30.029,-3.540
0.669,-1.824,0.195,3.357,-27.527,14.893
0.672,-1.750,0.206,13.489,-23.010,29.419
0.671,-1.735,0.212,20.508,-20.142,45.959
0.666,-1.699,0.206,26.611,-16.418,59.753
0.654,-1.652,0.201,30.212,-13.855,76.111
0.642,-1.618,0.182,34.424,-12.024,88.318
0.632,-1.571,0.160,38.269,-10.620,103.333
0.626,-1.533,0.135,43.396,-9.949,115.234
0.623,-1.485,0.115,48.828,-9.460,128.052
0.615,-1.444,0.094,56.213,-8.911,139.099
0.598,-1.395,0.085,64.575,-8.728,152.344
0.586,-1.359,0.069,72.327,-8.728,162.598
0.568,-1.298,0.062,82.092,-8.057,172.119
0.547,-1.252,0.055,90.576,-8.667,182.922
0.531,-1.195,0.057,99.731,-8.545,191.101
0.548,-0.990,0.067,121.887,-8.545,227.478
0.563,-0.947,0.051,125.061,-8.972,236.572
0.576,-0.882,0.039,126.404,-10.681,245.728
0.590,-0.823,0.027,127.319,-12.085,256.897
0.595,-0.753,0.014,125.488,-14.893,265.625
0.596,-0.697,-0.000,123.474,-18.372,275.513
0.599,-0.630,-0.017,121.887,-22.400,283.203
0.597,-0.575,-0.061,120.605,-28.198,291.199
0.606,-0.505,-0.037,120.483,-32.349,296.936
0.617,-0.451,-0.027,121.582,-37.903,303.528
0.614,-0.396,-0.017,121.765,-41.260,310.547
0.609,-0.339,-0.008,122.070,-46.021,317.200
0.601,-0.280,0.007,123.596,-49.622,322.693
0.588,-0.214,0.010,126.587,-52.979,329.651
0.576,-0.116,0.012,129.150,-56.763,333.740
0.571,-0.027,0.023,130.798,-59.814,336.670
0.566,0.079,0.044,134.033,-62.683,337.646
0.558,0.164,0.066,136.108,-64.270,336.487
0.538,0.271,0.097,138.245,-67.078,334.106
0.476,0.529,0.204,133.972,-67.871,319.641
0.450,0.568,0.219,130.432,-68.420,312.317
0.414,0.614,0.239,124.023,-69.153,304.810
0.363,0.638,0.239,118.347,-71.411,297.180
0.318,0.660,0.229,114.136,-77.881,293.030
0.296,0.707,0.244,108.887,-84.595,291.077
0.293,0.777,0.301,104.431,-93.811,291.565
0.295,0.889,0.365,97.961,-99.548,292.114
0.141,1.005,0.440,89.661,-105.164,290.955
0.290,1.151,0.537,79.834,-103.943,287.170
0.250,1.266,0.632,72.693,-103.699,279.114
0.175,1.351,0.686,64.575,-103.088,269.836
0.137,1.442,0.774,55.176,-96.375,260.010
0.081,1.545,0.796,39.734,-85.022,247.864
0.004,1.575,0.804,32.532,-81.543,229.980
-0.044,1.589,0.818,30.640,-81.421,215.332
-0.073,1.617,0.834,32.776,-83.313,198.975
-0.075,1.665,0.892,31.982,-81.604,185.913
-0.072,1.719,0.933,27.710,-74.524,169.434
-0.094,1.733,0.948,22.705,-63.965,154.602
-0.127,1.733,0.932,16.357,-57.251,139.404
-0.164,1.716,0.886,13.123,-52.368,122.437
-0.180,1.702,0.849,9.277,-52.063,108.337
-0.185,1.699,0.823,3.601,-52.734,92.773
-0.181,1.695,0.811,-4.700,-54.504,80.688
-0.169,1.590,0.844,-33.691,-50.964,34.058
-0.174,1.563,0.845,-36.621,-47.302,21.851
-0.173,1.528,0.839,-38.879,-44.250,11.719
-0.179,1.499,0.824,-41.260,-41.626,0.854
-0.170,1.473,0.806,-44.006,-39.734,-7.263
-0.149,1.460,0.792,-62.256,-37.109,-16.235
-0.130,1.444,0.776,-51.086,-35.400,-23.254
-0.115,1.429,0.757,-55.481,-33.691,-32.166
-0.112,1.406,0.736,-61.401,-32.166,-41.016
-0.105,1.378,0.711,-67.383,-31.799,-48.523
-0.093,1.342,0.691,-74.890,-31.006,-56.946
-0.083,1.309,0.657,-81.543,-31.311,-63.965
-0.058,1.264,0.626,-89.233,-31.006,-71.716
-0.042,1.224,0.587,-95.947,-32.959,-78.552
-0.025,1.170,0.563,-99.548,-32.898,-85.999
-0.012,1.124,0.543,-103.882,-34.058,-91.919
0.002,1.069,0.527,-106.384,-33.630,-98.999
0.016,1.019,0.508,-107.605,-33.447,-104.980
0.034,0.958,0.489,-107.300,-32.166,-112.122
0.047,0.906,0.468,-106.140,-31.921,-117.432
0.057,0.841,0.459,-104.614,-30.884,-123.657
0.044,0.635,0.388,-98.572,-33.386,-145.386
0.044,0.584,0.375,-97.290,-36.072,-149.963
0.053,0.521,0.377,-95.093,-38.818,-154.968
0.061,0.465,0.378,-90.576,-40.833,-158.569
0.069,0.390,0.387,-85.022,-42.358,-163.025
0.073,0.329,0.404,-76.965,-42.664,-165.894
0.069,0.259,0.427,-69.946,-42.297,-168.884
0.065,0.203,0.455,-63.110,-41.931,-171.814
0.062,0.134,0.467,-57.739,-40.283,-174.377
0.070,0.079,0.484,-53.833,-40.161,-176.880
0.084,0.020,0.495,-53.650,-39.551,-179.077
0.091,-0.048,0.503,-54.871,-39.673,-179.565
0.109,-0.130,0.486,-56.580,-39.307,-177.490
0.128,-0.188,0.457,-59.875,-41.260,-175.293
0.150,-0.250,0.436,-62.378,-43.213,-171.387
0.161,-0.302,0.422,-63.782,-47.180,-167.725
0.171,-0.358,0.418,-64.697,-50.415,-164.185
0.173,-0.409,0.428,-64.636,-55.237,-161.438
0.178,-0.469,0.444,-63.782,-57.617,-158.386
0.220,-0.713,0.538,-47.119,-59.875,-139.954
0.230,-0.770,0.555,-38.208,-57.983,-133.301
0.229,-0.798,0.569,-30.701,-55.603,-124.329
0.223,-0.815,0.580,-22.095,-53.406,-116.821
0.211,-0.818,0.586,-16.541,-51.392,-108.582
0.203,-0.816,0.596,-11.536,-50.537,-102.417
0.200,-0.815,0.613,-9.460,-50.964,-94.727
0.206,-0.816,0.628,-9.583,-50.537,-88.562
0.217,-0.823,0.645,-11.597,-51.025,-80.688
0.222,-0.831,0.653,-13.367,-50.476,-73.547
0.224,-0.835,0.665,-13.672,-50.720,-64.758
0.221,-0.827,0.672,-14.160,-49.744,-56.458
0.218,-0.815,0.682,-14.038,-48.157,-49.744
0.214,-0.789,0.690,-12.573,-46.570,-41.931
0.217,-0.757,0.698,-10.193,-44.556,-36.499
0.216,-0.720,0.699,-8.545,-42.664,-30.334
0.212,-0.688,0.698,-5.859,-39.734,-25.635
0.206,-0.645,0.697,-3.418,-38.330,-21.240
0.200,-0.608,0.698,-1.587,-35.461,-17.639
0.197,-0.564,0.703,0.122,-34.241,-13.367
0.193,-0.524,0.714,1.770,-32.166,-10.864
0.159,-0.383,0.756,5.249,-18.127,-4.761
0.155,-0.360,0.748,5.005,-14.404,-3.418
0.155,-0.314,0.736,5.371,-10.010,-1.770
0.155,-0.318,0.721,5.798,-6.714,0.732
0.149,-0.296,0.701,6.958,-3.357,2.625
0.132,-0.265,0.681,8.057,-1.221,3.967
0.110,-0.244,0.652,9.705,0.610,5.066
0.092,-0.211,0.632,10.193,1.160,5.798
0.085,-0.187,0.619,10.254,0.854,6.348
0.077,-0.154,0.614,9.460,0.854,6.714
0.079,-0.128,0.612,8.972,0.305,6.714
0.078,-0.102,0.610,8.118,0.488,7.141
0.075,-0.079,0.610,5.859,0.854,6.714
0.070,-0.055,0.609,4.883,1.892,6.653
0.062,-0.040,0.604,4.150,2.502,5.798
0.055,-0.024,0.597,2.747,3.723,4.700
0.047,-0.005,0.591,2.319,3.479,3.296
0.043,0.005,0.581,1.587,4.333,1.831
0.038,0.013,0.576,1.221,4.578,-0.061
0.041,0.014,0.569,0.122,5.310,-1.526
0.045,0.015,0.568,-1.160,6.165,-2.563
0.046,0.017,0.564,-1.892,5.493,-3.296
0.047,0.015,0.561,-3.601,5.920,-3.662
0.045,0.010,0.557,-4.395,4.883,-3.906
0.044,0.006,0.554,-6.531,5.127,-3.845
0.039,0.001,0.551,-8.301,4.578,-4.272
0.037,-0.005,0.548,-9.521,4.639,-3.845
0.038,-0.014,0.544,-10.498,3.479,-4.150
0.041,-0.021,0.540,-10.498,3.662,-4.211
0.040,-0.028,0.536,-10.193,3.052,-3.845
0.041,-0.033,0.531,-9.399,2.808,-4.211
0.038,-0.035,0.525,-8.728,2.930,-4.395
0.040,-0.039,0.522,-7.690,2.502,-4.700
0.037,-0.043,0.519,-7.996,2.808,-5.127
0.039,-0.047,0.516,-8.057,2.686,-5.554
0.042,-0.058,0.516,-6.958,2.808,-5.615
0.042,-0.067,0.514,-7.141,1.770,-6.104
0.047,-0.082,0.518,-7.385,1.892,-5.615
0.049,-0.092,0.519,-6.897,1.343,-5.249
0.050,-0.104,0.518,-6.592,1.770,-4.517
0.050,-0.110,0.516,-5.920,2.136,-3.113
0.053,-0.119,0.512,-5.920,1.709,-1.648
0.053,-0.125,0.511,-6.226,1.160,-0.671
0.055,-0.129,0.505,-6.470,1.160,1.282
0.051,-0.130,0.500,-6.775,0.122,2.747
0.052,-0.129,0.499,-6.165,0.305,4.211
0.054,-0.125,0.495,-6.409,-1.465,5.798
0.052,-0.119,0.493,-6.287,-1.465,7.263
0.054,-0.109,0.494,-4.883,-2.502,8.362
0.053,-0.095,0.494,-3.967,-2.991,8.728
0.051,-0.084,0.495,-2.747,-3.967,10.071
0.050,-0.068,0.497,-1.709,-3.906,10.193
0.048,-0.056,0.504,-1.526,-4.211,9.644
0.048,-0.048,0.513,-1.465,-3.906,9.766
0.055,-0.043,0.518,-1.343,-3.967,9.399
0.058,-0.037,0.523,-1.587,-3.967,9.094
0.064,-0.037,0.525,-0.061,-2.930,9.583
0.066,-0.028,0.526,0.671,-2.258,9.277
0.064,-0.025,0.528,0.488,-0.977,8.972
0.032,-0.022,0.528,1.099,-0.427,8.606
0.057,-0.022,0.529,0.610,1.282,7.935
0.053,-0.019,0.527,0.916,0.854,7.263
0.051,-0.017,0.529,1.038,1.404,6.653
0.051,-0.019,0.526,0.916,1.770,5.859
0.047,-0.023,0.522,0.061,2.014,4.944
0.049,-0.024,0.519,-0.244,2.502,4.211
0.047,-0.025,0.516,1.038,2.075,3.479
0.046,-0.029,0.513,0.488,2.075,2.747
0.048,-0.034,0.518,0.732,1.709,2.258
0.052,-0.041,0.514,1.282,1.831,2.258
0.053,-0.043,0.517,2.136,2.197,2.319
0.051,-0.044,0.518,1.587,1.404,1.953
0.048,-0.045,0.518,2.014,1.831,2.075
0.047,-0.048,0.519,2.502,1.892,1.953
0.052,-0.054,0.520,1.953,1.770,2.258
0.055,-0.054,0.521,1.709,1.343,3.357
0.058,-0.053,0.521,2.014,1.892,3.906
0.064,-0.054,0.523,1.648,1.831,5.005
0.062,-0.053,0.521,1.892,2.502,5.493
0.057,-0.049,0.520,1.587,2.075,6.226
0.054,-0.048,0.515,0.671,2.808,6.897
0.049,-0.043,0.511,-0.305,1.892,7.263
0.043,-0.042,0.508,-0.244,1.221,7.385
0.040,-0.041,0.505,-1.099,0.244,7.080
0.037,-0.039,0.505,-1.282,-0.793,7.202
0.031,-0.037,0.500,-1.282,-2.258,6.592
0.025,-0.034,0.503,-0.977,-3.235,5.493
0.029,-0.030,0.507,-0.854,-4.578,4.700
0.028,-0.026,0.515,-0.671,-5.127,3.540
0.032,-0.026,0.524,-0.610,-5.188,2.869
0.034,-0.023,0.529,-0.732,-5.310,1.770
0.035,-0.026,0.535,-0.366,-4.761,1.160
0.042,-0.030,0.540,0.488,-4.517,0.977
0.045,-0.033,0.543,1.038,-3.662,0.916
0.045,-0.035,0.544,1.282,-2.869,0.916
0.040,-0.036,0.545,1.831,-2.075,1.221
0.041,-0.034,0.545,1.770,-1.404,1.099
0.040,-0.035,0.546,1.953,-1.099,1.648
0.040,-0.034,0.544,1.831,-0.854,2.197
0.044,-0.033,0.541,1.282,-0.732,2.808
0.044,-0.032,0.542,0.854,-1.160,3.296
0.042,-0.029,0.538,0.671,-1.099,4.333
0.042,-0.026,0.538,0.305,-1.343,4.822
0.039,-0.019,0.537,0.366,-1.099,5.188
0.035,-0.013,0.539,-0.122,-1.160,5.310
0.030,-0.004,0.537,-0.671,-1.465,4.822
0.028,0.004,0.532,-0.671,-2.136,3.845
0.027,0.009,0.530,-0.610,-2.747,2.686
0.028,0.008,0.536,-1.404,-3.235,1.831
0.032,0.009,0.535,-1.892,-3.174,0.366
0.033,0.008,0.538,-2.258,-3.723,-0.488
0.038,0.003,0.541,-2.991,-3.540,-1.709
0.040,-0.003,0.541,-3.601,-3.235,-2.380
0.042,-0.009,0.541,-3.479,-2.930,-3.235
0.045,-0.015,0.539,-3.113,-2.869,-3.662
0.046,-0.024,0.540,-2.502,-2.808,-4.639
0.045,-0.028,0.539,-1.892,-2.991,-4.761
0.050,-0.037,0.538,-1.587,-2.625,-5.127
0.056,-0.039,0.542,-1.465,-2.747,-5.066
0.062,-0.044,0.549,-1.160,-2.625,-4.822
0.066,-0.048,0.550,-1.770,-2.075,-4.272
0.070,-0.053,0.552,-1.892,-1.465,-3.540
0.068,-0.056,0.553,-1.953,-0.916,-2.869
0.068,-0.060,0.550,-1.770,-0.244,-1.648
0.066,-0.060,0.542,-1.770,0.000,-0.977
0.062,-0.056,0.538,-1.282,0.305,-0.671
0.060,-0.055,0.539,-0.793,0.305,-0.305
0.062,-0.055,0.537,-0.916,0.732,0.793
0.062,-0.056,0.532,-1.038,0.854,0.977
0.062,-0.056,0.529,-0.916,0.916,1.770
0.060,-0.054,0.521,-0.916,0.061,1.831
0.058,-0.050,0.521,-1.099,-0.183,2.319
0.057,-0.046,0.519,-1.404,-0.793,2.319
0.054,-0.048,0.517,-1.221,-0.916,2.563
0.054,-0.053,0.517,-1.221,-1.221,2.319
0.051,-0.058,0.518,-0.793,-1.038,2.625
0.050,-0.061,0.522,0.549,-0.793,2.808
0.044,-0.062,0.520,1.831,-0.366,2.808
0.039,-0.057,0.518,2.686,0.305,2.869
0.039,-0.050,0.511,3.357,0.549,2.991
0.036,-0.047,0.505,3.723,0.305,2.258
0.034,-0.035,0.502,3.906,-0.122,2.258
0.034,-0.033,0.500,4.272,-0.977,1.770
0.033,-0.030,0.505,3.723,-1.526,1.282
0.031,-0.027,0.510,2.930,-1.831,0.732
0.029,-0.029,0.515,2.869,-2.258,0.366
0.032,-0.030,0.517,2.441,-1.953,0.305
0.032,-0.032,0.517,1.770,-1.587,0.305
0.035,-0.032,0.519,1.526,-1.709,0.244
0.031,-0.030,0.518,1.282,-1.770,-0.061
0.030,-0.032,0.515,0.793,-1.770,-0.061
0.033,-0.031,0.513,0.549,-2.319,-0.549
0.036,-0.028,0.516,-0.122,-2.686,-0.549
0.040,-0.025,0.513,-1.160,-2.869,-0.610
0.040,-0.025,0.513,-1.465,-3.418,-0.732
0.042,-0.027,0.517,-1.892,-3.540,-0.977
0.039,-0.030,0.519,-2.441,-4.089,-1.648
0.042,-0.043,0.518,-2.441,-4.272,-2.014
0.042,-0.047,0.524,-2.502,-4.333,-2.258
0.042,-0.051,0.527,-2.075,-4.700,-2.625
0.048,-0.057,0.531,-1.526,-4.700,-2.258
0.049,-0.063,0.533,-0.977,-4.822,-2.686
0.054,-0.067,0.534,-0.793,-4.395,-2.747
0.063,-0.081,0.542,0.488,-3.235,-0.305
0.064,-0.078,0.545,0.305,-3.113,0.366
0.066,-0.077,0.544,0.427,-2.869,0.610
0.068,-0.076,0.547,0.916,-2.563,1.221
0.066,-0.079,0.551,0.549,-2.014,1.709
0.065,-0.076,0.552,0.610,-1.587,2.441
0.067,-0.079,0.553,0.549,-1.221,2.930

0.974,-1.547,-0.117,-17.090,7.446,-391.785
1.000,-1.706,-0.071,-10.315,0.183,-376.038
1.022,-1.841,-0.024,-6.470,-4.639,-352.417
1.033,-1.993,0.025,-3.662,-10.620,-328.735
1.046,-2.102,0.058,-1.709,-14.771,-296.631
1.040,-2.205,0.080,-1.587,-18.677,-267.761
1.024,-2.264,0.094,-0.854,-22.461,-232.117
0.974,-2.304,0.108,1.221,-25.818,-202.332
0.984,-2.316,0.126,4.944,-29.053,-168.213
0.965,-2.315,0.152,11.475,-30.640,-125.549
0.946,-2.295,0.177,18.860,-32.471,-111.206
0.930,-2.262,0.214,28.320,-31.616,-87.585
0.921,-2.226,0.251,35.583,-29.968,-60.364
0.912,-2.176,0.287,44.861,-27.222,-38.757
0.901,-2.129,0.305,52.795,-23.743,-14.160
0.874,-2.054,0.309,60.669,-20.508,5.005
0.843,-2.003,0.307,65.918,-16.663,25.879
0.819,-1.935,0.302,74.158,-14.038,41.931
0.799,-1.875,0.300,81.604,-11.902,59.326
0.779,-1.823,0.302,87.097,-9.949,73.120
0.768,-1.773,0.304,91.919,-7.507,90.515
0.773,-1.729,0.308,94.055,-5.920,105.103
0.769,-1.685,0.306,93.750,-3.723,123.108
0.756,-1.647,0.289,93.445,-1.892,138.062
0.737,-1.594,0.267,94.421,-1.648,154.846
0.718,-1.549,0.234,95.642,-1.343,168.213
0.652,-1.348,0.162,107.971,-5.432,220.032
0.639,-1.300,0.151,111.572,-6.714,233.276
0.630,-1.258,0.143,115.356,-7.751,244.507
0.627,-1.204,0.149,119.812,-8.667,257.935
0.627,-1.152,0.156,123.047,-9.338,268.127
0.625,-1.088,0.159,126.038,-8.972,280.640
0.622,-1.033,0.143,127.686,-9.888,290.466
0.615,-0.960,0.114,130.127,-10.986,300.354
0.611,-0.899,0.077,132.507,-14.282,312.378
0.613,-0.814,0.057,134.766,-18.311,322.083
0.623,-0.740,0.044,137.329,-23.560,333.374
0.632,-0.651,0.038,138.916,-28.381,358.276
0.643,-0.576,0.053,138.123,-32.410,354.553
0.652,-0.498,0.078,135.559,-35.828,364.014
0.667,-0.444,0.097,131.592,-39.063,375.549
0.679,-0.380,0.119,127.747,-41.626,386.108
0.694,-0.315,0.126,123.840,-43.213,398.560
0.696,-0.240,0.126,120.361,-46.326,408.325
0.698,-0.135,0.112,119.141,-48.340,418.823
0.696,-0.029,0.095,119.446,-52.612,425.598
0.683,0.110,0.083,118.347,-57.190,430.115
0.605,0.529,0.133,98.999,-81.726,426.086
0.586,0.606,0.172,93.445,-88.501,419.861
0.557,0.684,0.206,90.515,-93.079,411.499
0.534,0.725,0.253,87.830,-97.351,405.640
0.515,0.770,0.307,85.938,-100.159,400.879
0.505,0.822,0.363,84.045,-100.830,397.766
0.499,0.918,0.401,83.435,-100.159,395.020
0.406,1.015,0.464,81.238,-99.915,391.052
0.448,1.169,0.465,77.393,-97.595,385.986
0.447,1.318,0.473,70.435,-97.290,376.770
0.402,1.426,0.556,63.721,-98.633,365.662
0.408,1.515,0.649,55.603,-92.163,353.577
0.392,1.616,0.680,36.743,-79.041,341.980
0.303,1.664,0.641,26.611,-73.792,324.768
0.245,1.716,0.583,26.001,-79.224,310.120
0.219,1.819,0.554,27.954,-88.867,292.419
0.218,1.930,0.564,26.978,-99.670,277.710
0.222,2.052,0.602,17.151,-103.638,261.841
0.205,2.130,0.652,5.493,-101.929,239.990
0.172,2.181,0.684,-9.155,-98.877,203.735
0.111,2.181,0.709,-18.860,-95.947,193.420
0.076,2.147,0.740,-25.879,-94.055,170.654
0.049,2.098,0.754,-29.175,-89.050,143.494
0.023,2.042,0.747,-32.837,-84.778,123.169
0.014,2.015,0.727,-36.072,-80.017,102.478
0.023,1.991,0.719,-37.354,-75.195,83.618
0.026,1.963,0.712,-37.231,-71.350,62.012
0.018,1.951,0.694,-35.522,-68.542,44.006
0.047,1.931,0.655,-45.593,-57.495,-27.649
0.060,1.910,0.643,-49.805,-54.688,-45.105
0.074,1.881,0.634,-56.396,-52.063,-58.716
0.092,1.833,0.635,-62.134,-49.377,-75.806
0.102,1.762,0.618,-71.228,-45.593,-88.074
0.123,1.672,0.586,-79.102,-41.809,-100.830
0.137,1.566,0.521,-88.928,-38.696,-109.924
0.158,1.512,0.464,-96.252,-37.781,-118.896
0.166,1.413,0.384,-104.614,-39.490,-125.977
0.171,1.375,0.326,-111.450,-44.006,-133.728
0.181,1.338,0.276,-120.605,-51.025,-140.198
0.193,1.293,0.259,-128.418,-59.082,-148.621
0.205,1.247,0.273,-137.878,-66.162,-156.616
0.223,1.184,0.299,-144.897,-71.045,-166.443
0.232,1.114,0.328,-151.733,-75.073,-174.194
0.243,1.030,0.347,-153.992,-76.416,-184.814
0.250,0.923,0.355,-154.541,-76.111,-193.665
0.261,0.853,0.354,-151.794,-75.562,-204.468
0.272,0.770,0.351,-145.386,-74.463,-213.562
0.316,0.379,0.370,-99.792,-64.697,-246.582
0.324,0.290,0.378,-87.952,-63.049,-254.639
0.333,0.190,0.400,-74.158,-61.707,-259.827
0.351,0.105,0.428,-66.528,-61.096,-264.832
0.370,-0.015,0.460,-60.852,-60.974,-268.494
0.391,-0.124,0.472,-57.922,-61.707,-269.775
0.407,-0.258,0.487,-56.946,-63.354,-268.188
0.416,-0.368,0.504,-56.519,-64.941,-264.160
0.413,-0.493,0.536,-54.626,-67.383,-259.827
0.395,-0.590,0.580,-53.650,-68.420,-254.150
0.380,-0.713,0.623,-50.659,-68.848,-234.497
0.361,-0.822,0.663,-31.738,-67.017,-244.324
0.348,-0.959,0.693,-41.321,-65.979,-239.014
0.345,-1.076,0.724,-34.973,-62.256,-229.980
0.351,-1.207,0.740,-25.879,-60.364,-218.384
0.358,-1.301,0.756,-18.127,-57.007,-206.787
0.365,-1.390,0.773,-8.850,-55.176,-190.430
0.364,-1.444,0.789,-0.732,-53.528,-175.171
0.351,-1.440,0.840,4.639,-53.101,-97.351
0.344,-1.417,0.851,3.967,-53.528,-76.538
0.331,-1.363,0.869,2.380,-53.589,-60.303
0.301,-1.276,0.885,1.770,-52.856,-44.067
0.276,-1.195,0.907,1.709,-50.659,-32.471
0.255,-1.113,0.924,1.282,-47.729,-20.386
0.240,-1.056,0.935,1.160,-43.152,-11.658
0.229,-0.987,0.935,1.160,-38.391,-0.732
0.227,-0.921,0.927,1.831,-31.860,7.202
0.212,-0.836,0.915,3.540,-27.039,14.648
0.194,-0.773,0.899,4.822,-21.790,20.081
0.171,-0.699,0.877,7.507,-17.456,25.574
0.144,-0.633,0.853,9.705,-13.367,29.785
0.123,-0.547,0.835,11.353,-9.705,32.532
0.109,-0.477,0.808,12.085,-6.897,34.973
0.097,-0.394,0.788,12.451,-5.188,35.461
0.081,-0.318,0.769,12.634,-2.930,34.668
0.069,-0.237,0.752,11.292,-1.892,33.386
0.051,-0.181,0.740,9.583,-0.977,30.090
0.040,-0.130,0.722,6.226,-0.427,26.978
0.033,-0.100,0.712,3.723,0.122,23.865
0.034,-0.069,0.701,0.732,0.305,21.545
0.032,-0.047,0.698,-2.014,0.610,18.677
0.033,-0.025,0.693,-5.066,1.953,16.785
0.031,-0.006,0.687,-7.507,2.991,14.160
0.030,0.008,0.677,-10.010,5.249,12.512
0.030,0.022,0.671,-13.000,6.470,10.559
0.031,0.027,0.662,-15.198,8.118,8.545
0.034,0.028,0.656,-18.250,9.888,6.775
0.039,0.027,0.644,-19.653,11.536,6.226
0.039,0.029,0.630,-21.545,13.123,5.249
0.035,0.029,0.612,-22.461,13.855,4.150
0.033,0.030,0.594,-23.132,14.893,2.686
0.022,0.031,0.582,-23.193,14.832,0.854
0.018,0.025,0.570,-23.010,14.832,-0.793
0.019,0.018,0.562,-23.804,29.785,-2.625
0.021,0.007,0.554,-23.193,15.503,-3.906
0.025,-0.009,0.554,-21.790,31.128,-5.737
0.028,-0.024,0.553,-19.897,17.334,-6.531
0.029,-0.040,0.550,-17.639,18.433,-6.897
0.036,-0.049,0.538,-14.954,19.470,-7.141
0.036,-0.059,0.530,-13.062,20.813,-6.592
0.038,-0.064,0.514,-11.353,20.996,-6.104
0.039,-0.070,0.510,-11.047,20.691,-5.310
0.037,-0.072,0.501,-11.292,20.447,-4.272
0.038,-0.074,0.494,-12.268,18.494,-2.197
0.041,-0.076,0.488,-13.916,17.395,-0.183
0.038,-0.042,0.466,-20.447,7.996,9.155
0.032,-0.026,0.469,-20.447,5.249,10.376
0.026,-0.015,0.476,-20.325,3.845,10.315
0.019,0.004,0.483,-19.165,2.686,9.583
0.014,0.011,0.491,-18.616,1.892,8.545
0.016,0.020,0.496,-15.869,1.160,7.324
0.020,0.028,0.501,-13.977,1.892,5.859
0.024,0.033,0.506,-11.353,1.770,4.456
0.027,0.039,0.512,-8.911,2.808,2.991
0.026,0.041,0.516,-6.409,2.563,1.038
0.028,0.039,0.523,-3.662,4.639,-0.244
0.028,0.032,0.529,-1.648,4.700,-1.953
0.030,0.023,0.535,-0.977,6.775,-3.357
0.031,0.018,0.542,0.854,7.385,-4.211
0.036,0.010,0.550,2.197,8.667,-5.005
0.037,-0.000,0.552,3.357,9.766,-5.981
0.041,-0.010,0.553,3.845,11.536,-6.287
0.041,-0.018,0.547,3.357,12.329,-6.226
0.043,-0.026,0.541,3.174,13.000,-5.859
0.046,-0.034,0.500,2.136,13.245,-5.066
0.052,-0.043,0.525,0.488,13.062,-4.211
0.057,-0.041,0.526,0.000,12.207,-1.953
0.031,-0.031,0.524,-0.854,11.841,-0.793
0.061,-0.023,0.530,-2.686,11.169,0.854
0.064,-0.013,0.536,-3.540,11.536,1.648
0.062,-0.004,0.538,-5.615,10.559,1.770
0.060,-0.001,0.533,-6.653,10.925,1.953
0.058,0.003,0.524,-7.080,10.132,1.404
0.057,0.004,0.512,-7.324,9.827,0.671
0.056,0.002,0.505,-7.446,8.728,0.916
0.063,0.001,0.499,-6.592,7.446,0.244
0.060,0.003,0.499,-6.287,6.226,-0.854
0.061,0.001,0.503,-4.272,5.676,-1.465
0.057,0.000,0.504,-2.319,4.761,-2.075
0.055,0.001,0.514,-1.770,4.761,-2.869
0.057,-0.003,0.521,-0.549,4.333,-3.723
0.060,-0.007,0.534,0.488,4.578,-4.272
0.031,-0.010,0.543,1.160,5.310,-4.761
0.061,-0.013,0.548,0.916,6.226,-5.737
0.058,-0.015,0.551,0.000,6.470,-5.981
0.058,-0.023,0.546,-0.916,7.263,-6.348
0.057,-0.035,0.541,-2.930,7.019,-6.226
0.060,-0.038,0.533,-3.235,7.019,-5.554
0.059,-0.044,0.522,-4.639,6.775,-5.371
0.061,-0.048,0.519,-5.859,6.409,-4.517
0.063,-0.055,0.512,-6.470,5.798,-3.662
0.064,-0.059,0.510,-6.042,5.981,-2.319
0.063,-0.064,0.505,-5.188,5.493,-1.343
0.059,-0.068,0.498,-4.700,5.737,0.122
0.056,-0.068,0.493,-2.808,4.761,0.854
0.050,-0.068,0.491,-1.526,5.859,2.136
0.051,-0.033,0.487,0.183,5.005,3.235
0.046,-0.056,0.485,1.221,5.737,3.601
0.039,-0.043,0.485,2.258,4.700,3.723
0.036,-0.032,0.488,2.258,3.967,3.418
0.031,-0.020,0.489,1.404,3.845,3.296
0.032,-0.013,0.484,-0.916,2.747,3.296
0.035,-0.011,0.482,-2.563,1.648,2.808
0.035,-0.010,0.478,-4.700,0.244,2.869
0.034,-0.015,0.475,-5.981,-0.732,2.441
0.031,-0.022,0.475,-5.615,-2.441,2.502
0.031,-0.026,0.479,-5.493,-2.747,2.014
0.032,-0.033,0.487,-4.028,-3.357,1.526
0.031,-0.036,0.491,-2.258,-3.357,0.977
0.033,-0.042,0.496,-0.793,-2.014,0.793
0.032,-0.045,0.498,-0.366,-2.869,0.366
0.035,-0.046,0.506,0.244,-2.014,-0.244
0.034,-0.054,0.506,0.122,-2.625,0.061
0.037,-0.060,0.505,-0.488,-2.563,-0.122
0.043,-0.067,0.502,-1.648,-3.967,0.366
0.049,-0.073,0.504,-2.563,-4.211,1.892
0.053,-0.076,0.507,-3.296,-5.371,3.235
0.061,-0.077,0.509,-4.272,-5.615,4.822
0.060,-0.074,0.507,-4.761,-6.165,6.836
0.056,-0.071,0.509,-3.967,-6.042,7.751
0.052,-0.068,0.509,-4.456,-6.958,8.972
0.052,-0.060,0.514,-3.601,-6.409,9.338
0.051,-0.052,0.517,-2.808,-6.226,9.949
0.049,-0.047,0.519,-2.136,-5.981,9.827
0.049,-0.042,0.521,-0.916,-5.432,9.949
0.050,-0.036,0.524,0.549,-4.883,9.827
0.051,-0.028,0.528,2.258,-4.517,9.338
0.050,-0.022,0.535,2.808,-3.662,8.911
0.050,-0.020,0.542,4.395,-2.747,8.240
0.050,-0.022,0.546,5.432,-0.977,7.324
0.049,-0.027,0.544,6.714,0.183,6.531
0.046,-0.027,0.544,7.812,1.404,5.371
0.045,-0.026,0.538,8.972,2.319,4.333
0.041,-0.023,0.530,8.972,2.808,3.662
0.042,-0.023,0.513,9.888,2.380,2.991
0.040,-0.026,0.502,10.071,0.549,2.197
0.043,-0.030,0.501,9.521,0.122,2.258
0.044,-0.032,0.500,9.033,-1.160,2.502
0.040,-0.037,0.505,8.728,-1.709,2.686
0.040,-0.037,0.511,9.888,-2.991,3.235
0.039,-0.033,0.525,9.094,-2.930,3.601
0.035,-0.027,0.531,9.888,-3.113,3.052
0.033,-0.023,0.535,10.437,-3.113,2.808
0.033,-0.019,0.544,8.850,-3.296,2.380
0.036,-0.015,0.547,7.996,-2.197,2.686
0.036,-0.012,0.548,7.385,-1.892,2.380
0.034,-0.007,0.547,6.348,-1.282,2.136
0.033,-0.006,0.545,6.042,-1.099,1.648
0.038,-0.005,0.545,4.761,-0.732,2.014
0.045,-0.004,0.544,4.028,-1.404,2.686
0.049,-0.000,0.544,3.479,-0.916,3.357
0.045,0.005,0.541,2.319,-0.671,3.784
0.042,0.005,0.539,1.587,0.366,3.662
0.035,0.005,0.538,1.221,0.793,3.540
0.030,0.004,0.542,0.793,1.221,2.747
0.030,0.002,0.536,1.160,1.282,2.136
0.062,0.001,0.532,0.854,1.404,1.404
0.031,-0.002,0.525,0.244,1.038,1.099
0.029,-0.001,0.519,0.671,1.282,0.305
0.028,-0.007,0.506,0.488,-0.854,-0.427
0.034,-0.015,0.507,0.305,-1.404,-0.549
0.038,-0.024,0.516,-0.977,-2.197,0.366
0.043,-0.025,0.522,-2.380,-1.648,1.221
0.047,-0.022,0.520,-2.747,-2.075,2.502
0.044,-0.021,0.526,-2.991,-0.977,2.808
0.038,-0.026,0.524,-2.319,-1.099,2.502
0.034,-0.027,0.526,-1.160,-0.366,2.441
0.034,-0.028,0.524,-0.793,-0.061,2.258
0.036,-0.028,0.525,-0.366,0.366,2.197
0.037,-0.029,0.526,0.000,0.732,2.563
0.039,-0.030,0.523,0.610,1.282,2.625
0.039,-0.031,0.522,0.793,0.977,2.625
0.037,-0.025,0.516,1.831,1.526,2.502
0.034,-0.016,0.512,2.625,1.221,2.869
0.036,-0.008,0.507,1.648,0.854,1.892
0.034,-0.000,0.504,1.404,-0.427,1.709
0.033,0.002,0.506,1.892,-1.404,0.854
0.031,0.003,0.507,0.854,-1.648,0.427
0.032,0.002,0.512,0.549,-1.587,-0.183
0.033,-0.000,0.517,-0.061,-2.075,-0.671
0.032,-0.005,0.518,0.122,-1.831,-1.282
0.034,-0.009,0.521,0.488,-1.282,-1.404
0.035,-0.011,0.520,0.671,-1.038,-1.831
0.037,-0.015,0.521,1.709,0.305,-2.136
0.034,-0.016,0.518,2.319,-0.122,-2.930
0.033,-0.019,0.513,3.113,0.366,-3.113

1.050,-1.683,-0.016,-57.007,11.719,-419.067
1.064,-1.857,-0.000,-44.067,9.827,-402.405
1.061,-1.994,0.030,-34.973,7.019,-379.456
1.048,-2.163,0.075,-25.696,3.418,-358.459
1.026,-2.290,0.105,-18.921,15.259,-330.078
1.021,-2.415,0.138,-13.428,-4.456,-303.711
1.025,-2.547,0.156,-10.132,-8.423,-269.226
1.032,-2.656,0.172,-5.920,-13.062,-236.389
1.045,-2.716,0.187,-0.977,-16.418,-195.374
1.044,-2.750,0.203,6.470,-20.813,-160.645
1.025,-2.747,0.247,14.221,-23.254,-119.263
0.996,-2.711,0.237,26.001,-24.597,-86.914
0.952,-2.671,0.254,37.292,-25.452,-50.842
0.910,-2.593,0.284,50.232,-26.123,-22.400
0.873,-2.520,0.318,61.707,-25.574,9.399
0.849,-2.410,0.358,73.181,-23.743,33.325
0.840,-2.324,0.391,82.092,-20.813,60.425
0.838,-2.205,0.434,90.820,-15.747,82.153
0.834,-2.127,0.462,96.985,-9.460,106.750
0.825,-2.013,0.462,102.295,-1.892,126.770
0.812,-1.950,0.445,106.140,5.615,150.146
0.808,-1.815,0.401,109.924,12.634,168.335
0.792,-1.712,0.356,112.915,16.846,186.707
0.775,-1.607,0.303,113.892,18.982,200.256
0.749,-1.257,0.184,110.352,10.803,251.099
0.749,-1.196,0.183,107.056,8.667,262.512
0.740,-1.152,0.185,103.638,6.409,276.001
0.733,-1.105,0.188,99.976,4.272,287.842
0.730,-1.067,0.190,97.595,2.502,301.697
0.729,-1.021,0.196,95.886,1.953,312.988
0.734,-0.974,0.201,93.567,0.427,327.393
0.726,-0.923,0.200,91.919,1.221,339.233
0.702,-0.867,0.175,92.712,1.099,353.943
0.678,-0.812,0.132,94.421,0.427,365.906
0.657,-0.719,0.101,95.764,-1.526,379.639
0.645,-0.624,0.062,100.525,-5.188,389.893
0.632,-0.499,0.034,105.225,-8.118,400.635
0.625,-0.388,0.013,109.558,-13.855,407.288
0.619,-0.263,0.010,113.342,-17.822,413.940
0.614,-0.155,0.018,113.831,-24.353,417.480
0.605,-0.037,0.031,112.122,-27.954,419.617
0.588,0.057,0.035,94.116,-34.851,421.387
0.573,0.164,0.043,106.567,-40.161,422.302
0.560,0.260,0.043,103.271,-47.791,422.729
0.562,0.379,0.060,100.342,-53.894,420.837
0.558,0.460,0.074,99.487,-59.143,418.274
0.570,0.542,0.106,95.947,-64.575,415.649
0.562,0.635,0.150,90.576,-67.627,411.194
0.545,0.703,0.191,81.360,-68.604,405.457
0.474,0.749,0.201,74.829,-70.435,399.292
0.423,0.789,0.224,69.092,-74.951,396.973
0.389,0.874,0.247,65.552,-80.200,396.484
0.336,1.448,0.378,55.908,-94.666,371.643
0.297,1.554,0.448,50.415,-95.398,359.680
0.260,1.676,0.503,35.522,-90.820,348.633
0.193,1.757,0.511,20.569,-85.693,332.153
0.121,1.793,0.508,11.169,-88.623,315.796
0.047,1.826,0.508,13.855,-99.731,297.729
0.023,1.908,0.548,22.949,-109.741,282.166
0.013,1.981,0.601,30.029,-114.868,262.207
0.011,2.052,0.663,32.288,-112.488,245.361
-0.007,2.104,0.698,30.029,-106.812,224.182
-0.026,2.115,0.739,23.987,-96.680,205.688
-0.065,2.101,0.769,20.020,-90.454,183.716
-0.089,2.087,0.800,16.541,-82.825,163.452
-0.123,2.064,0.803,13.123,-77.698,140.320
-0.142,2.053,0.795,8.240,-72.205,123.352
-0.146,2.053,0.791,2.258,-70.374,103.760
-0.139,2.057,0.784,-3.845,-67.139,87.219
-0.128,2.049,0.768,-11.780,-65.552,70.679
-0.129,2.037,0.748,-19.104,-63.293,50.903
-0.131,2.010,0.731,-29.907,-62.744,35.522
-0.120,1.988,0.730,-39.978,-61.890,18.005
-0.097,1.935,0.721,-51.514,-61.401,6.287
-0.122,1.911,0.728,-58.472,-63.354,-6.714
-0.070,1.907,0.739,-69.092,-58.533,-18.188
-0.092,1.873,0.679,-75.806,-60.669,-32.959
-0.085,1.841,0.653,-80.933,-64.575,-48.096
0.031,1.620,0.615,-111.267,-59.631,-101.379
0.062,1.509,0.581,-117.615,-56.641,-111.328
0.100,1.442,0.552,-121.643,-54.504,-122.375
0.129,1.355,0.522,-125.305,-51.697,-130.920
0.157,1.252,0.500,-127.686,-49.622,-140.869
0.173,1.140,0.469,-129.211,-47.363,-148.437
0.193,1.082,0.435,-128.540,-46.875,-157.654
0.209,0.977,0.396,-126.587,-46.204,-164.307
0.237,0.935,0.368,-124.451,-46.326,-171.448
0.261,0.854,0.331,-119.812,-47.119,-177.795
0.287,0.827,0.311,-114.868,-48.096,-184.998
0.308,0.779,0.296,-108.276,-48.950,-191.528
0.323,0.714,0.289,-101.868,-49.011,-199.646
0.337,0.626,0.283,-93.140,-49.255,-205.139
0.351,0.580,0.279,-85.327,-49.072,-210.571
0.358,0.514,0.281,-76.233,-49.316,-214.050
0.363,0.442,0.281,-70.251,-49.316,-216.736
0.345,0.176,0.269,-75.012,-60.425,-219.238
0.346,0.076,0.269,-83.740,-65.979,-218.018
0.359,0.018,0.271,-91.797,-71.106,-215.149
0.362,-0.088,0.275,-100.647,-76.233,-212.036
0.349,-0.152,0.270,-104.919,-79.895,-206.360
0.333,-0.219,0.257,-107.605,-83.862,-201.355
0.303,-0.286,0.245,-106.323,-87.891,-196.167
0.281,-0.347,0.245,-100.830,-92.346,-192.688
0.255,-0.389,0.254,-93.994,-97.107,-189.453
0.238,-0.431,0.286,-83.862,-99.854,-188.782
0.222,-0.468,0.322,-72.083,-102.783,-188.721
0.221,-0.524,0.376,-57.861,-102.478,-188.782
0.233,-0.572,0.423,-45.227,-100.586,-188.416
0.235,-0.623,0.469,-28.687,-97.351,-172.119
0.236,-0.668,0.503,-14.465,-93.567,-187.012
0.224,-0.728,0.536,0.854,-89.111,-186.401
0.210,-0.774,0.561,12.756,-86.426,-184.875
0.224,-1.004,0.647,32.532,-81.543,-164.490
0.242,-1.066,0.661,30.762,-82.825,-152.344
0.248,-1.102,0.680,28.381,-85.327,-140.686
0.249,-1.139,0.691,25.635,-88.440,-126.099
0.251,-1.156,0.727,22.339,-92.041,-112.793
0.249,-1.165,0.757,17.090,-94.360,-96.008
0.246,-1.165,0.798,11.475,-95.215,-82.031
0.238,-1.144,0.829,6.531,-95.154,-65.369
0.232,-1.115,0.865,3.418,-93.689,-52.124
0.222,-1.063,0.888,0.793,-91.431,-37.231
0.217,-1.017,0.910,-15.625,-88.074,-25.391
0.214,-0.960,0.922,-0.854,-84.656,-12.878
0.215,-0.908,0.933,-0.366,-79.407,-2.808
0.205,-0.827,0.942,0.610,-74.341,7.385
0.193,-0.760,0.955,2.747,-68.115,14.343
0.173,-0.672,0.959,4.761,-62.195,20.081
0.150,-0.597,0.957,7.141,-54.382,22.766
0.099,-0.509,0.947,9.949,-47.668,23.560
0.106,-0.448,0.926,11.902,-40.161,23.193
0.099,-0.368,0.905,14.343,-34.302,21.179
0.095,-0.307,0.887,17.090,-28.259,16.907
0.089,-0.258,0.863,20.264,-23.865,13.367
0.082,-0.229,0.841,22.766,-18.555,9.399
0.074,-0.200,0.820,24.353,-14.526,6.226
0.067,-0.187,0.804,25.330,-9.888,3.357
0.058,-0.174,0.791,24.902,-8.179,1.038
0.057,-0.158,0.774,22.705,-6.104,0.000
0.057,-0.145,0.757,20.508,-4.456,-0.244
0.064,-0.125,0.750,18.372,-3.296,0.366
0.069,-0.106,0.738,15.442,-1.404,1.099
0.076,-0.079,0.734,13.000,-0.610,2.014
0.076,-0.049,0.721,10.315,0.549,3.052
0.074,-0.015,0.714,7.935,0.549,3.479
0.069,0.006,0.704,4.089,0.122,2.991
0.062,0.025,0.701,0.305,-0.671,2.197
0.052,0.034,0.696,-3.723,-1.770,1.343
0.054,0.042,0.695,-8.362,-1.587,0.793
0.056,0.043,0.696,-10.986,-1.099,-0.183
0.059,0.048,0.694,-13.306,0.366,-0.305
0.060,0.052,0.686,-14.465,1.953,-0.061
0.062,0.060,0.673,-14.099,3.296,-0.488
0.057,0.068,0.660,-13.611,4.822,-1.587
0.051,0.077,0.647,-12.695,5.676,-2.563
0.043,0.077,0.639,-11.902,6.653,-4.761
0.041,0.047,0.608,-5.615,12.207,-9.583
0.045,0.039,0.591,-3.357,14.404,-10.620
0.042,0.028,0.574,-1.770,31.189,-11.475
0.033,0.019,0.551,-0.183,16.724,-12.085
0.028,0.008,0.532,-0.183,16.479,-11.841
0.028,0.000,0.511,-0.854,15.442,-11.414
0.033,-0.005,0.500,-2.930,14.221,-10.254
0.040,-0.005,0.490,-5.127,11.719,-9.033
0.047,-0.006,0.487,-7.812,8.972,-7.507
0.051,-0.006,0.485,-9.949,7.080,-6.042
0.052,-0.003,0.481,-12.085,4.822,-3.906
0.050,-0.001,0.482,-14.038,2.441,-3.113
0.049,0.001,0.480,-14.832,1.404,-2.014
0.053,0.000,0.485,-16.052,-0.549,-1.038
0.062,0.006,0.492,-16.052,-1.282,-0.488
0.066,0.014,0.497,-30.640,-2.319,0.732
0.068,0.023,0.508,-14.893,-2.869,1.343
0.071,0.036,0.517,-14.526,-2.686,1.831
0.069,0.051,0.519,-14.587,-3.296,1.892
0.066,0.061,0.524,-15.259,-2.747,1.465
0.067,0.068,0.531,-16.113,-3.052,0.916
0.070,0.073,0.535,-16.785,-2.808,0.244
0.072,0.079,0.537,-15.991,-1.404,-0.916
0.070,0.081,0.542,-15.198,15.015,-2.380
0.074,0.079,0.544,-14.893,0.854,-3.723
0.074,0.072,0.541,-14.648,2.686,-5.066
0.074,0.059,0.537,-12.329,4.333,-5.920
0.074,0.046,0.532,-12.451,5.127,-6.653
0.075,0.033,0.529,-10.376,6.836,-6.897
0.075,0.026,0.520,-8.545,7.751,-7.202
0.073,0.020,0.516,-7.385,9.277,-7.263
0.069,0.013,0.506,-5.615,10.620,-7.019
0.068,0.005,0.489,-4.333,10.315,-7.690
0.066,0.002,0.481,-2.014,9.827,-7.996
0.064,0.001,0.438,-0.305,8.545,-8.545
0.033,-0.001,0.468,1.282,7.141,-9.094
0.062,-0.001,0.469,1.648,5.554,-9.277
0.065,-0.010,0.479,1.526,4.211,-9.094
0.066,-0.016,0.491,1.221,2.991,-8.850
0.065,-0.020,0.502,0.488,2.502,-7.996
0.068,-0.027,0.511,-0.122,2.075,-6.714
0.068,-0.030,0.517,-0.671,2.686,-5.310
0.070,-0.026,0.523,-1.587,1.709,-3.174
0.069,-0.022,0.522,-2.319,2.625,-1.526
0.067,-0.008,0.516,-2.563,1.953,-0.427
0.062,0.005,0.507,-3.113,2.258,0.000
0.057,0.019,0.503,-4.089,1.587,0.305
0.057,0.031,0.503,-4.639,-0.488,0.061
0.056,0.044,0.507,-5.798,-1.282,-0.244
0.058,0.050,0.520,-6.104,-2.197,-1.099
0.056,0.052,0.525,-6.470,-2.136,-2.747
0.055,0.048,0.535,-6.958,-1.587,-3.601
0.055,0.039,0.538,-6.104,-0.122,-4.700
0.062,0.033,0.535,-4.517,1.343,-5.493
0.061,0.028,0.532,-2.197,3.052,-5.859
0.059,0.026,0.526,-0.854,4.089,-6.714
0.056,0.020,0.517,0.183,4.578,-7.507
0.057,0.015,0.510,0.427,5.005,-7.996
0.059,0.007,0.500,-0.610,4.883,-8.423
0.058,-0.001,0.495,-1.404,3.906,-9.583
0.061,-0.011,0.491,-3.235,3.357,-9.705
0.065,-0.021,0.496,-4.822,2.686,-9.399
0.069,-0.036,0.493,-5.066,1.526,-8.911
0.072,-0.049,0.491,-5.310,1.526,-8.606
0.073,-0.059,0.492,-4.883,1.099,-7.751
0.073,-0.071,0.492,-3.967,1.038,-6.470
0.074,-0.078,0.492,-2.563,0.977,-5.432
0.074,-0.083,0.495,-2.441,1.953,-3.601
0.076,-0.081,0.496,-0.916,1.587,-2.197
0.073,-0.076,0.490,0.610,2.380,-0.244
0.073,-0.074,0.479,1.282,1.831,1.221
0.069,-0.069,0.474,2.197,0.366,2.563
0.070,-0.057,0.474,2.747,-1.160,3.784
0.070,-0.044,0.484,2.380,-1.587,5.432
0.069,-0.035,0.493,2.625,-2.258,5.859
0.061,-0.027,0.497,2.808,-1.953,6.348
0.060,-0.020,0.498,3.418,-0.854,6.775
0.056,-0.018,0.501,4.883,-0.488,6.653
0.053,-0.014,0.530,6.470,0.427,6.348
0.050,-0.008,0.500,8.606,0.977,5.859
0.051,-0.002,0.501,9.521,1.343,4.761
0.048,0.031,0.497,11.292,2.319,4.028
0.050,-0.001,0.496,12.329,2.197,3.235
0.052,-0.004,0.490,12.573,2.197,2.686
0.048,-0.009,0.485,12.451,1.709,2.563
0.042,-0.003,0.480,12.573,1.160,2.014
0.035,-0.004,0.475,11.597,-0.916,0.854
0.035,-0.000,0.476,11.902,-2.075,-0.183
0.035,0.003,0.474,10.681,-3.540,-0.854
0.036,0.003,0.477,9.949,-4.272,-2.319
0.038,0.006,0.484,8.667,-5.554,-2.808
0.036,0.005,0.494,8.179,-6.287,-3.296
0.038,0.008,0.502,6.165,-7.935,-3.784
0.039,0.013,0.507,3.906,-8.667,-4.395
0.038,0.017,0.513,1.404,-10.132,-4.456
0.041,0.019,0.527,0.000,-10.620,-4.761
0.045,0.022,0.541,-2.686,-10.864,-5.005
0.043,0.023,0.545,-3.601,-11.230,-5.493
0.045,0.024,0.545,-5.310,-10.498,-5.798
0.048,0.022,0.547,-7.263,-10.376,-5.920
0.045,0.022,0.551,-9.094,-10.315,-5.981
0.049,0.025,0.552,-9.338,-9.460,-6.165
0.053,0.026,0.558,-10.254,-9.094,-6.836
0.058,0.024,0.563,-10.742,-8.606,-7.324
0.059,0.021,0.567,-10.742,-7.751,-8.301
0.059,0.009,0.566,-11.902,-7.507,-8.911
0.074,-0.040,0.576,-10.254,-3.479,-9.399
0.079,-0.048,0.574,-9.460,-2.380,-9.155
0.084,-0.053,0.572,-8.606,-1.221,-8.057
0.083,-0.057,0.565,-8.179,-0.549,-7.385
0.089,-0.066,0.561,-7.324,-0.854,-5.859
0.086,-0.072,0.556,-6.958,-0.122,-4.822
0.087,-0.079,0.552,-7.141,-0.244,-2.502
0.089,-0.082,0.547,-6.226,-0.854,-0.916
0.085,-0.082,0.548,-4.639,-0.366,0.977
0.083,-0.082,0.545,-3.784,-0.488,2.502
0.082,-0.075,0.545,-2.625,0.244,4.272
0.080,-0.071,0.545,-1.831,-0.488,5.188
0.076,-0.057,0.548,-0.732,0.061,7.080
0.075,-0.046,0.549,-0.488,0.183,8.118
0.072,-0.028,0.551,-0.366,0.854,8.545
0.069,-0.019,0.550,-0.549,1.343,9.033
0.062,-0.006,0.548,-0.977,1.526,9.216
0.057,0.003,0.543,-0.549,1.526,8.911
0.054,0.011,0.533,-0.488,1.892,8.667
0.049,0.019,0.522,-15.503,1.831,8.179
0.049,0.029,0.516,0.366,1.587,7.507
0.048,0.032,0.514,0.366,0.488,6.042
0.046,0.033,0.511,0.549,1.038,5.493
0.043,0.034,0.510,0.366,0.793,4.211
0.044,0.031,0.514,0.732,-0.122,3.601
0.048,0.033,0.513,0.183,-0.244,3.296
0.045,0.027,0.516,0.732,0.183,2.930
0.045,0.024,0.516,0.305,-0.732,1.831
0.045,0.021,0.514,0.549,-0.671,1.160
0.045,0.019,0.513,-0.183,-0.977,1.038
0.049,0.021,0.513,-0.305,-1.160,0.488
0.047,0.022,0.509,-1.343,-1.160,0.732
0.049,0.020,0.506,-1.099,-1.404,0.732
0.048,0.019,0.505,-1.221,-1.892,0.610
0.045,0.016,0.506,-1.648,-2.014,0.244
0.046,0.012,0.506,-1.465,-2.014,0.183
0.048,0.011,0.505,-0.488,-2.014,-0.305
0.048,0.012,0.509,0.610,-1.831,-0.366

0.828,-1.814,-0.005,-29.602,-32.837,-343.872
0.861,-1.967,0.071,-20.874,-36.560,-323.425
0.893,-2.050,0.120,-14.587,-38.391,-296.448
0.912,-2.111,0.161,-5.615,-41.138,-273.560
0.916,-2.163,0.184,0.854,-43.213,-246.216
0.911,-2.194,0.214,8.850,-46.814,-223.999
0.903,-2.233,0.249,15.137,-49.438,-199.158
0.911,-2.258,0.312,22.705,-51.941,-178.467
0.930,-2.282,0.364,30.762,-52.673,-153.076
0.949,-2.301,0.439,40.527,-49.927,-131.958
0.965,-2.314,0.502,49.622,-44.922,-105.591
0.968,-2.308,0.561,61.707,-36.499,-83.130
0.958,-2.282,0.592,73.547,-26.367,-56.519
0.946,-2.241,0.607,87.463,-14.038,-34.729
0.928,-2.172,0.608,98.083,-3.235,-9.705
0.919,-2.108,0.594,110.352,8.728,10.010
0.899,-2.023,0.567,118.164,16.663,32.654
0.893,-1.950,0.533,124.268,24.658,50.720
0.881,-1.877,0.505,127.625,29.785,72.571
0.868,-1.820,0.470,129.578,34.485,90.942
0.850,-1.750,0.441,130.859,37.781,109.436
0.830,-1.685,0.397,130.981,39.978,130.798
0.817,-1.604,0.347,130.676,41.687,147.339
0.765,-1.294,0.206,128.662,33.875,210.388
0.755,-1.231,0.191,126.770,29.907,224.243
0.746,-1.165,0.177,124.512,26.245,235.840
0.737,-1.108,0.165,121.948,22.766,249.756
0.735,-1.041,0.164,117.798,19.348,260.559
0.735,-0.994,0.163,114.563,16.907,273.376
0.740,-0.957,0.163,110.901,14.526,284.241
0.744,-0.917,0.159,108.398,12.390,297.058
0.740,-0.883,0.153,106.506,10.925,308.105
0.742,-0.853,0.148,105.591,9.644,321.045
0.739,-0.824,0.148,106.201,8.972,331.726
0.732,-0.775,0.141,105.652,8.118,358.032
0.719,-0.729,0.102,105.957,7.446,355.164
0.706,-0.651,0.062,108.276,4.944,367.004
0.691,-0.558,0.022,111.145,0.610,379.517
0.669,-0.426,-0.021,117.188,-4.395,388.306
0.665,-0.333,-0.035,119.141,-11.719,397.766
0.673,-0.203,-0.032,121.094,-17.090,405.396
0.685,-0.069,-0.015,121.643,-23.193,413.635
0.667,0.108,0.005,120.300,-28.198,417.908
0.622,0.276,0.019,117.676,-33.752,419.006
0.573,0.471,0.029,113.281,-41.260,418.518
0.536,0.642,0.043,108.398,-48.462,413.818
0.469,1.233,0.227,73.853,-77.087,386.047
0.438,1.323,0.311,58.838,-80.444,378.174
0.387,1.402,0.375,45.349,-81.665,368.713
0.336,1.459,0.438,33.020,-80.933,360.657
0.256,1.527,0.467,22.522,-80.872,350.525
0.194,1.575,0.489,16.846,-79.163,334.961
0.149,1.594,0.471,15.442,-79.163,319.214
0.097,1.616,0.472,18.555,-78.064,299.805
0.071,1.666,0.425,27.100,-78.064,279.602
0.044,1.651,0.468,36.987,-79.224,256.653
0.037,1.665,0.482,46.875,-76.050,243.164
0.028,1.705,0.529,53.406,-73.792,226.807
0.016,1.738,0.574,64.209,-73.120,212.524
-0.000,1.821,0.607,74.097,-74.768,195.129
-0.014,1.907,0.653,80.383,-75.439,179.749
-0.049,1.987,0.693,78.796,-74.158,160.217
-0.080,2.032,0.712,72.876,-71.472,143.860
-0.099,2.061,0.717,63.599,-68.787,124.390
-0.103,2.066,0.719,56.030,-66.528,107.849
-0.107,2.061,0.721,49.194,-63.293,90.942
-0.118,2.045,0.723,43.762,-60.181,71.045
-0.154,2.044,0.722,36.377,-55.603,55.359
-0.130,2.056,0.730,29.480,-49.866,37.354
-0.131,2.055,0.721,20.691,-44.983,21.851
-0.128,2.052,0.696,14.221,-39.917,2.563
-0.126,2.032,0.661,7.019,-36.804,-13.428
-0.119,2.000,0.640,-0.427,-33.997,-33.936
-0.171,1.939,0.589,-10.254,-33.020,-49.011
-0.042,1.624,0.459,-60.303,-41.565,-97.595
0.009,1.566,0.430,-73.242,-45.776,-106.567
0.039,1.485,0.385,-92.102,-47.241,-113.525
0.062,1.398,0.347,-106.018,-49.438,-120.728
0.082,1.280,0.319,-119.934,-51.392,-125.610
0.107,1.179,0.278,-128.113,-54.260,-129.211
0.153,1.076,0.249,-132.324,-56.824,-133.179
0.146,0.994,0.234,-134.888,-58.289,-137.085
0.151,0.903,0.218,-136.108,-58.716,-139.893
0.147,0.838,0.181,-134.888,-59.937,-143.799
0.145,0.781,0.144,-131.042,-61.951,-147.461
0.149,0.741,0.107,-110.413,-65.979,-152.954
0.185,0.689,0.089,-117.676,-69.580,-159.790
0.160,0.637,0.078,-94.482,-75.867,-169.373
0.168,0.563,0.089,-98.694,-80.383,-178.528
0.186,0.486,0.124,-89.722,-85.449,-189.087
0.203,0.383,0.164,-78.369,-87.891,-196.777
0.237,0.287,0.207,-70.129,-89.478,-203.491
0.304,-0.154,0.338,-40.588,-92.773,-205.994
0.300,-0.291,0.366,-37.170,-94.788,-201.965
0.302,-0.389,0.415,-36.255,-98.450,-197.693
0.305,-0.509,0.451,-37.231,-101.318,-190.552
0.311,-0.608,0.497,-39.429,-104.309,-182.190
0.324,-0.715,0.529,-41.321,-106.079,-169.556
0.336,-0.791,0.561,-42.786,-107.605,-156.738
0.335,-0.863,0.581,-41.626,-108.276,-141.052
0.318,-0.930,0.590,-38.757,-108.765,-128.601
0.292,-0.922,0.602,-35.645,-109.741,-115.295
0.262,-0.925,0.625,-30.518,-111.511,-107.178
0.232,-0.935,0.660,-26.245,-111.938,-98.999
0.222,-0.953,0.707,-22.278,-112.732,-93.689
0.224,-0.986,0.753,-18.982,-112.183,-87.402
0.238,-1.016,0.812,-15.686,-111.450,-81.177
0.261,-1.038,0.858,-14.343,-108.093,-71.228
0.303,-1.014,0.995,-2.502,-89.905,-27.588
0.294,-0.967,1.016,-1.404,-84.717,-17.883
0.290,-0.916,1.036,-1.892,-79.590,-6.775
0.250,-0.845,1.056,-3.418,-75.012,1.282
0.267,-0.776,1.065,-5.249,-70.068,9.338
0.223,-0.687,1.071,-7.751,-65.979,14.404
0.237,-0.615,1.075,-10.193,-61.157,18.738
0.228,-0.537,1.086,-12.878,-56.030,21.606
0.216,-0.474,1.088,-14.771,-49.866,23.682
0.202,-0.410,1.088,-15.503,-43.457,24.170
0.192,-0.364,1.078,-13.855,-35.522,24.536
0.183,-0.311,1.056,-10.315,-27.954,23.865
0.169,-0.270,1.004,-7.751,-21.179,22.766
0.145,-0.225,1.004,-3.845,-14.526,21.362
0.120,-0.190,0.942,-1.587,-8.545,19.775
0.108,-0.150,0.934,0.000,-4.089,18.494
0.104,-0.119,0.902,0.854,-0.366,16.968
0.100,-0.082,0.874,1.587,1.892,16.052
0.099,-0.057,0.849,2.869,3.723,14.404
0.098,-0.035,0.824,2.563,6.226,14.038
0.093,-0.017,0.802,2.136,7.874,13.916
0.086,0.001,0.782,1.404,10.376,13.428
0.078,0.019,0.763,0.671,11.353,13.550
0.074,0.036,0.741,-0.610,13.184,13.428
0.069,0.056,0.719,-2.747,14.160,13.367
0.066,0.074,0.700,-5.493,14.526,13.489
0.061,0.092,0.673,-8.423,14.038,13.672
0.060,0.103,0.654,-10.925,13.184,13.428
0.058,0.115,0.628,-14.465,11.719,13.672
0.053,0.133,0.612,-17.212,10.132,13.550
0.048,0.145,0.598,-19.653,8.057,13.184
0.043,0.155,0.593,-21.423,6.714,11.902
0.046,0.161,0.587,-22.949,4.272,10.559
0.041,0.161,0.587,-24.414,3.174,8.362
0.042,0.159,0.593,-25.574,2.075,6.653
0.039,0.148,0.601,-26.245,1.831,4.822
0.042,0.135,0.607,-25.940,1.770,2.441
0.044,0.119,0.610,-25.146,2.075,1.221
0.049,0.111,0.614,-24.597,2.563,-0.244
0.055,0.065,0.612,-22.766,3.906,-1.282
0.062,0.080,0.613,-21.179,4.883,-2.319
0.065,0.070,0.615,-18.311,6.287,-3.540
0.063,0.057,0.616,-16.541,8.301,-4.089
0.067,0.048,0.613,-14.282,10.010,-5.066
0.064,0.038,0.611,-12.573,11.536,-5.737
0.067,0.028,0.601,-11.597,12.695,-6.042
0.074,0.020,0.596,-10.498,13.855,-6.226
0.077,0.016,0.586,-10.559,14.526,-6.104
0.080,0.019,0.580,-9.338,14.465,-6.104
0.083,0.021,0.569,-9.033,14.587,-6.165
0.078,0.021,0.564,-8.484,14.587,-6.287
0.085,0.020,0.559,-8.484,14.648,-5.981
0.085,0.017,0.559,-8.423,14.404,-5.859
0.086,0.014,0.554,-8.850,14.832,-6.165
0.086,0.007,0.542,-8.301,15.076,-5.615
0.082,0.001,0.504,-5.554,14.099,-3.967
0.084,0.003,0.495,-5.066,13.733,-3.967
0.082,0.008,0.483,-4.517,12.146,-3.784
0.083,0.008,0.477,-4.272,9.888,-3.601
0.087,0.005,0.475,-3.906,9.094,-3.357
0.086,0.007,0.474,-3.601,6.958,-2.502
0.086,0.012,0.475,-2.808,6.470,-2.441
0.085,0.018,0.479,-2.197,5.920,-2.991
0.080,0.023,0.484,-1.892,4.700,-3.113
0.078,0.025,0.485,0.366,4.517,-4.150
0.077,0.026,0.488,0.977,4.578,-4.700
0.079,0.028,0.488,1.587,4.700,-5.310
0.077,0.031,0.492,2.441,4.761,-5.920
0.076,0.029,0.494,2.686,4.211,-6.287
0.078,0.026,0.497,3.479,5.066,-6.714
0.077,0.025,0.498,3.662,4.883,-6.897
0.078,0.024,0.500,3.967,5.920,-7.507
0.081,0.023,0.504,3.723,5.981,-7.629
0.080,0.025,0.507,4.639,7.202,-7.935
0.080,0.020,0.507,3.723,7.385,-8.606
0.082,0.017,0.506,2.197,8.545,-8.362
0.089,0.016,0.494,1.526,9.094,-7.324
0.090,0.014,0.484,0.244,8.728,-7.141
0.085,0.012,0.474,-15.625,7.751,-7.019
0.083,0.008,0.469,-0.793,7.935,-6.958
0.082,0.003,0.472,-1.160,6.287,-6.897
0.083,0.002,0.474,-1.282,6.409,-6.409
0.082,0.005,0.474,-1.404,5.188,-6.531
0.085,0.000,0.477,-1.465,6.165,-6.165
0.083,-0.002,0.472,-1.343,4.639,-6.165
0.078,-0.004,0.472,-1.648,4.272,-5.798
0.079,-0.008,0.471,-2.014,3.723,-5.432
0.083,-0.010,0.476,-3.113,2.930,-5.005
0.084,-0.014,0.480,-3.784,2.014,-4.150
0.083,-0.017,0.487,-4.822,1.648,-3.357
0.078,-0.015,0.487,-6.042,1.648,-2.563
0.077,-0.016,0.485,-6.409,1.892,-2.014
0.073,-0.014,0.482,-7.080,2.075,-1.160
0.069,-0.012,0.478,-6.348,2.014,-0.977
0.068,-0.008,0.477,-6.042,2.380,-0.549
0.066,-0.008,0.476,-5.615,1.892,-0.549
0.063,-0.007,0.476,-4.700,1.892,-0.488
0.060,-0.009,0.474,-4.272,1.831,-0.610
0.062,-0.008,0.472,-4.883,1.160,-0.854
0.061,-0.007,0.472,-4.333,0.366,-0.427
0.059,-0.007,0.473,-4.395,-0.305,-0.122
0.058,-0.004,0.472,-4.700,-1.221,-0.305
0.058,0.006,0.476,-4.517,-1.404,-0.366
0.061,0.011,0.483,-5.310,-2.991,-0.610
0.060,0.015,0.488,-6.409,-3.662,-0.732
0.059,0.015,0.495,-7.141,-3.906,-0.977
0.059,0.015,0.500,-7.324,-3.723,-1.343
0.060,0.018,0.503,-7.446,-4.395,-1.709
0.061,0.014,0.506,-6.531,-3.784,-2.686
0.064,0.015,0.511,-5.371,-3.662,-3.052
0.064,0.014,0.512,-3.723,-2.808,-3.906
0.067,0.016,0.518,-2.869,-2.747,-4.089
0.070,0.020,0.520,-1.343,-1.648,-4.517
0.072,0.022,0.521,-1.465,-2.136,-4.944
0.072,0.022,0.521,-0.732,-1.465,-5.493
0.075,0.020,0.523,0.061,-1.709,-5.859
0.078,0.013,0.526,1.099,-1.404,-6.042
0.080,0.007,0.531,2.014,-0.488,-6.042
0.080,-0.004,0.534,3.052,0.244,-5.798
0.081,-0.012,0.534,3.601,0.488,-5.554
0.080,-0.016,0.535,4.089,1.709,-5.005
0.077,-0.017,0.501,3.723,1.709,-3.967
0.077,-0.016,0.527,3.052,1.526,-3.296
0.072,-0.016,0.525,3.357,1.587,-3.052
0.072,-0.013,0.523,2.380,0.732,-2.319
0.072,-0.012,0.526,1.526,1.038,-2.197
0.068,-0.010,0.529,0.183,0.122,-1.648
0.065,-0.012,0.528,-0.427,-15.259,-0.854
0.066,-0.010,0.524,-1.648,-1.160,-0.977
0.068,-0.009,0.526,-1.953,-1.404,-0.488
0.065,-0.009,0.531,-2.747,-2.197,-0.122
0.070,-0.010,0.535,-2.930,-1.892,0.366
0.069,-0.009,0.539,-3.174,-2.197,1.038
0.068,-0.001,0.538,-2.136,-0.793,1.648
0.067,0.005,0.540,-1.526,-0.488,1.648
0.060,0.013,0.542,-1.343,1.221,1.099
0.055,0.019,0.542,-0.977,1.648,0.488
0.056,0.027,0.536,-0.366,2.136,-0.305
0.056,0.031,0.524,-0.122,2.502,-1.160
0.056,0.034,0.517,0.305,2.197,-2.502
0.059,0.034,0.514,0.610,1.770,-3.296
0.062,0.033,0.511,0.793,1.648,-4.150
0.064,0.025,0.511,0.427,0.977,-5.310
0.068,0.022,0.514,0.793,0.305,-5.310
0.072,0.014,0.520,1.709,-0.549,-5.676
0.071,0.007,0.523,1.587,-0.183,-5.737
0.072,-0.002,0.528,0.854,0.000,-5.310
0.072,-0.006,0.529,0.305,0.122,-4.517
0.074,-0.007,0.527,-0.183,-0.183,-4.211
0.074,-0.010,0.523,-1.282,-0.061,-3.296
0.075,-0.016,0.522,-2.380,-0.488,-2.930
0.072,-0.018,0.521,-3.052,-0.732,-2.380
0.072,-0.021,0.518,-2.869,-1.343,-1.160
0.074,-0.021,0.521,-3.479,-1.526,-0.488
0.074,-0.022,0.521,-3.906,-1.831,-0.305
0.073,-0.018,0.523,-3.845,-2.075,0.183
0.074,-0.018,0.523,-2.991,-1.953,0.671
0.075,-0.016,0.524,-2.991,-2.502,1.221
0.074,-0.016,0.524,-1.892,-2.197,1.831
0.073,-0.014,0.523,-1.282,-2.075,2.014
0.070,-0.010,0.524,-1.038,-1.343,2.014
0.069,-0.007,0.522,-0.610,-1.343,2.014
0.063,-0.003,0.523,-0.183,-1.038,1.831
0.061,0.006,0.521,0.305,-0.916,1.099
0.058,0.008,0.517,0.305,-0.732,0.549
0.058,0.005,0.513,0.000,-0.671,0.366
0.060,0.005,0.510,0.305,-1.038,-0.305
0.060,0.004,0.510,0.122,-0.732,-1.038
0.059,0.000,0.508,0.793,-1.221,-1.526
0.059,0.001,0.505,1.953,-1.526,-2.014
0.058,-0.005,0.503,2.991,-1.709,-2.625
0.060,-0.005,0.531,3.418,-1.465,-2.747
0.061,-0.005,0.500,4.822,-2.197,-2.747
0.062,-0.005,0.502,4.883,-1.404,-2.991
0.061,-0.005,0.505,5.798,-2.258,-2.869
0.061,-0.005,0.511,6.165,-2.258,-2.930
0.061,-0.004,0.516,5.798,-2.319,-3.113
0.062,-0.004,0.518,4.700,-2.747,-2.563
0.064,-0.001,0.519,4.089,-2.869,-2.563
0.063,-0.002,0.525,2.991,-2.869,-2.686
0.062,0.001,0.528,2.136,-2.258,-2.808
0.064,-0.003,0.533,1.709,-2.075,-2.747
0.064,-0.003,0.531,2.014,-1.892,-2.563
0.067,-0.003,0.522,1.099,-1.526,-2.014
0.069,-0.002,0.523,1.038,-1.648,-2.075
0.070,-0.003,0.522,1.465,-2.014,-1.831
0.070,-0.006,0.523,0.549,-2.075,-1.526
0.071,-0.004,0.526,0.366,-2.075,-1.831
0.068,-0.006,0.532,-0.122,-2.686,-1.648
0.070,-0.009,0.534,-0.854,-2.319,-1.160
0.070,-0.009,0.536,-1.038,-2.380,-0.732
0.068,-0.011,0.535,-1.892,-2.625,-0.427

0.795,-1.560,0.268,77.820,-30.212,-311.462
0.819,-1.650,0.333,89.355,-29.358,-293.030
0.837,-1.683,0.379,95.581,-27.832,-268.616
0.858,-1.724,0.419,99.915,-25.391,-246.582
0.871,-1.737,0.424,100.708,-24.475,-219.299
0.876,-1.729,0.422,98.755,-24.475,-196.655
0.880,-1.703,0.417,95.947,-26.245,-171.448
0.878,-1.657,0.416,90.942,-28.870,-151.489
0.877,-1.684,0.423,85.999,-32.715,-128.418
0.870,-1.682,0.436,80.994,-34.973,-110.168
0.870,-1.687,0.450,77.881,-36.743,-89.050
0.867,-1.689,0.471,77.209,-37.415,-71.655
0.864,-1.694,0.488,79.102,-36.926,-51.514
0.867,-1.697,0.509,82.581,-34.973,-35.156
0.869,-1.697,0.526,86.548,-32.593,-15.076
0.880,-1.689,0.547,91.370,-28.381,1.892
0.893,-1.679,0.562,95.703,-24.353,23.010
0.902,-1.665,0.577,99.670,-18.433,41.077
0.909,-1.643,0.585,101.501,-13.123,63.232
0.914,-1.617,0.584,104.370,-6.348,82.092
0.915,-1.578,0.575,106.506,-0.122,104.004
0.912,-1.544,0.548,108.093,7.019,121.399
0.909,-1.508,0.519,109.497,11.780,140.259
0.922,-1.407,0.359,112.549,23.621,211.426
0.927,-1.373,0.304,112.244,23.682,229.187
0.932,-1.324,0.269,111.755,22.522,245.850
0.932,-1.278,0.244,110.474,20.813,265.747
0.934,-1.221,0.218,107.544,18.982,282.776
0.936,-1.166,0.156,103.821,14.893,302.917
0.939,-1.101,0.150,96.619,10.681,319.946
0.941,-1.049,0.127,89.478,5.249,340.942
0.934,-0.991,0.103,82.153,-2.380,357.910
0.917,-0.902,0.080,77.576,-8.911,377.319
0.900,-0.783,0.058,74.402,-16.052,391.052
0.890,-0.690,0.034,72.510,-23.010,406.372
0.887,-0.583,-0.000,72.083,-30.151,417.114
0.870,-0.459,-0.014,72.632,-35.828,428.772
0.856,-0.362,-0.003,73.608,-43.396,437.866
0.836,-0.250,0.015,73.303,-49.255,447.327
0.819,-0.142,0.037,71.716,-56.335,455.627
0.792,-0.005,0.054,68.909,-63.599,462.524
0.765,0.120,0.072,66.040,-72.205,465.332
0.731,0.264,0.093,62.012,-80.688,463.745
0.685,0.375,0.127,59.509,-89.905,459.106
0.641,0.486,0.167,58.044,-98.511,438.232
0.575,0.579,0.202,57.129,-105.164,447.266
0.544,0.671,0.275,56.458,-110.291,443.787
0.527,0.803,0.320,54.565,-110.474,438.049
0.318,1.282,0.709,60.608,-89.661,394.470
0.241,1.376,0.720,54.932,-80.750,381.958
0.156,1.457,0.734,54.810,-76.904,362.610
0.098,1.544,0.734,57.434,-78.064,344.299
0.051,1.641,0.733,58.044,-81.543,322.205
0.036,1.687,0.743,55.786,-83.801,304.260
0.009,1.712,0.752,48.767,-83.496,285.767
-0.016,1.729,0.770,40.894,-81.360,271.545
-0.050,1.738,0.783,33.936,-79.468,254.089
-0.120,1.710,0.773,31.616,-78.918,233.887
-0.162,1.715,0.773,30.334,-80.505,221.741
-0.164,1.741,0.801,28.687,-82.458,207.886
-0.157,1.775,0.836,26.062,-83.130,195.862
-0.158,1.810,0.903,22.522,-83.679,182.495
-0.176,1.864,0.912,17.334,-83.374,171.021
-0.195,1.911,0.944,11.047,-83.191,155.579
-0.212,1.946,0.974,1.953,-81.787,141.846
-0.222,1.971,0.987,-6.653,-79.468,124.512
-0.255,1.994,0.986,-18.066,-76.965,109.009
-0.230,2.006,1.011,-28.137,-74.768,88.074
-0.219,1.988,0.979,-41.382,-67.505,67.139
-0.286,1.915,0.927,-48.340,-72.693,52.856
-0.227,1.935,0.952,-57.739,-76.172,40.039
-0.175,1.897,0.955,-68.298,-76.050,21.179
-0.162,1.814,0.938,-77.698,-71.716,5.615
-0.149,1.779,0.935,-83.191,-68.237,-12.146
-0.066,1.429,0.794,-90.393,-46.265,-66.956
-0.051,1.342,0.753,-93.933,-42.603,-91.980
-0.024,1.273,0.714,-96.985,-40.222,-85.693
0.030,1.191,0.666,-101.013,-39.307,-91.614
0.021,1.124,0.613,-104.187,-39.490,-98.999
0.046,1.045,0.568,-106.934,-39.673,-104.431
0.065,0.977,0.505,-108.765,-40.833,-109.070
0.075,0.904,0.503,-111.328,-41.382,-112.610
0.084,0.840,0.472,-113.586,-43.091,-116.821
0.086,0.769,0.445,-115.356,-44.250,-119.263
0.086,0.715,0.423,-115.479,-47.241,-122.986
0.090,0.651,0.410,-115.784,-48.706,-125.732
0.100,0.596,0.402,-114.685,-51.147,-128.235
0.110,0.539,0.394,-112.183,-52.185,-129.517
0.122,0.495,0.385,-109.192,-53.955,-131.775
0.124,0.439,0.371,-104.004,-54.871,-133.545
0.119,0.396,0.362,-97.534,-56.519,-136.902
0.108,0.343,0.362,-89.905,-57.861,-139.709
0.117,0.133,0.450,-56.274,-60.120,-154.968
0.134,0.071,0.480,-32.715,-58.899,-156.799
0.153,-0.014,0.509,-37.231,-56.030,-157.593
0.161,-0.085,0.543,-26.733,-52.612,-157.471
0.158,-0.169,0.574,-16.785,-48.950,-155.884
0.159,-0.233,0.590,-9.888,-46.021,-153.503
0.157,-0.309,0.601,-6.287,-44.250,-149.231
0.152,-0.364,0.601,-5.493,-43.823,-144.409
0.161,-0.421,0.606,-4.517,-44.006,-137.939
0.167,-0.459,0.612,-5.737,-45.227,-132.019
0.175,-0.503,0.617,-7.141,-45.959,-124.634
0.180,-0.561,0.626,-7.629,-47.241,-117.981
0.189,-0.565,0.634,-7.324,-48.584,-109.558
0.193,-0.581,0.643,-5.859,-49.194,-102.661
0.196,-0.592,0.653,-3.906,-49.316,-94.910
0.196,-0.597,0.670,-1.892,-48.889,-89.050
0.190,-0.600,0.687,0.061,-48.340,-83.069
0.189,-0.601,0.705,3.174,-46.082,-78.186
0.183,-0.606,0.713,4.395,-44.250,-72.388
0.190,-0.606,0.719,5.859,-42.114,-68.115
0.199,-0.603,0.716,7.141,-40.222,-62.378
0.206,-0.597,0.708,9.277,-39.490,-57.800
0.226,-0.556,0.746,14.709,-36.865,-41.199
0.227,-0.545,0.757,14.465,-35.339,-36.804
0.232,-0.541,0.772,13.977,-32.776,-33.447
0.232,-0.533,0.784,12.878,-30.640,-29.419
0.234,-0.525,0.791,10.620,-26.733,-25.452
0.229,-0.505,0.784,7.996,-23.743,-20.386
0.225,-0.490,0.769,5.615,-20.752,-16.296
0.217,-0.466,0.753,3.967,-18.799,-11.841
0.203,-0.407,0.730,2.930,-16.418,-8.484
0.191,-0.405,0.713,1.892,-14.526,-6.042
0.183,-0.379,0.700,1.404,-12.695,-4.395
0.172,-0.353,0.693,1.831,-10.986,-2.502
0.162,-0.334,0.686,2.258,-9.338,-2.319
0.152,-0.320,0.682,3.174,-7.019,-1.160
0.149,-0.309,0.677,4.578,-3.906,-0.427
0.141,-0.297,0.670,6.531,-1.160,0.366
0.131,-0.281,0.656,8.911,2.197,1.587
0.123,-0.258,0.643,9.705,3.357,3.052
0.119,-0.242,0.628,11.047,5.493,4.089
0.110,-0.217,0.616,11.047,6.714,5.798
0.101,-0.199,0.602,10.620,7.629,7.324
0.095,-0.176,0.591,8.789,6.775,8.484
0.089,-0.163,0.584,8.057,7.263,9.949
0.086,-0.147,0.573,5.615,6.653,11.536
0.078,-0.132,0.566,3.296,7.019,13.855
0.070,-0.109,0.554,2.258,6.592,15.320
0.066,-0.087,0.547,1.831,6.653,16.968
0.058,-0.032,0.543,0.977,6.042,18.494
0.050,-0.040,0.536,-0.244,5.859,19.653
0.046,-0.012,0.532,-1.160,5.432,19.287
0.042,0.017,0.537,-1.099,6.042,18.799
0.033,0.039,0.530,-1.526,5.676,17.639
0.023,0.065,0.526,-1.099,6.775,16.052
0.013,0.082,0.516,-1.404,6.958,14.038
0.007,0.102,0.506,-1.404,7.019,12.024
0.004,0.113,0.501,-1.770,6.409,8.301
0.003,0.115,0.502,-1.282,5.493,5.432
0.001,0.115,0.504,-0.793,5.737,2.319
0.002,0.113,0.508,-1.221,5.066,-0.427
0.005,0.103,0.511,-1.709,5.066,-3.418
0.010,0.097,0.520,-3.479,5.066,-4.822
0.017,0.085,0.521,-4.517,5.127,-6.958
0.019,0.072,0.524,-6.775,4.944,-8.179
0.028,0.057,0.519,-9.094,4.578,-8.850
0.032,0.041,0.506,-11.597,4.150,-9.155
0.039,0.027,0.503,-13.916,2.747,-9.033
0.041,0.008,0.500,-31.067,0.977,-8.362
0.047,-0.012,0.493,-17.639,-0.244,-7.324
0.046,-0.027,0.491,-19.348,-2.014,-5.859
0.050,-0.043,0.489,-19.775,-2.930,-4.211
0.051,-0.050,0.492,-19.165,-4.150,-2.319
0.052,-0.058,0.494,-17.639,-4.578,-0.854
0.054,-0.062,0.499,-0.854,-5.310,1.465
0.055,-0.061,0.500,-14.038,-4.883,3.052
0.052,-0.055,0.504,-12.207,-4.700,4.883
0.053,-0.042,0.513,-10.132,-4.395,5.981
0.050,-0.032,0.518,-8.606,-4.150,6.775
0.046,-0.016,0.521,-7.202,-4.639,7.141
0.045,-0.005,0.522,-6.958,-4.089,7.629
0.043,0.006,0.523,-6.226,-4.456,7.019
0.044,0.018,0.523,-5.554,-4.700,6.348
0.042,0.024,0.521,-5.005,-4.761,5.798
0.040,0.024,0.527,-4.150,-4.395,4.333
0.042,0.027,0.531,-3.113,-4.700,3.479
0.045,0.033,0.535,-2.319,-3.540,2.808
0.048,0.037,0.540,-1.465,-3.052,1.709
0.049,0.042,0.543,-0.122,-2.075,0.854
0.049,0.041,0.541,-0.183,-2.258,-0.122
0.049,0.037,0.537,-0.366,-1.709,-1.099
0.047,0.038,0.534,-0.610,-2.319,-1.587
0.051,0.036,0.535,-1.709,-1.953,-1.648
0.055,0.038,0.540,-2.808,-2.930,-1.953
0.058,0.038,0.541,-3.174,-2.747,-2.075
0.061,0.039,0.543,-3.906,-2.869,-1.892
0.062,0.039,0.540,-4.700,-2.686,-2.258
0.062,0.041,0.541,-5.005,-2.808,-3.113
0.060,0.039,0.542,-3.723,-1.526,-3.113
0.058,0.038,0.545,-3.418,-1.343,-3.906
0.061,0.032,0.553,-2.930,-0.244,-4.395
0.062,0.030,0.554,-2.686,0.488,-5.005
0.066,0.024,0.554,-2.258,1.831,-5.798
0.066,0.019,0.552,-1.770,2.441,-5.981
0.066,0.017,0.552,-1.648,2.319,-5.798
0.068,0.012,0.550,-1.892,2.808,-6.226
0.072,0.009,0.549,-2.502,3.174,-6.348
0.072,0.001,0.551,-2.686,3.784,-5.676
0.073,-0.008,0.546,-3.662,2.869,-5.188
0.074,-0.017,0.547,-4.517,3.479,-4.578
0.077,-0.024,0.549,-4.578,3.296,-3.845
0.076,-0.030,0.548,-5.188,4.089,-2.197
0.074,-0.035,0.546,-5.432,4.700,-1.404
0.072,-0.035,0.544,-6.165,4.944,0.244
0.071,-0.036,0.533,-5.676,5.249,1.099
0.068,-0.036,0.526,-6.226,4.822,1.709
0.064,-0.031,0.521,-5.432,5.005,2.441
0.058,-0.022,0.516,-5.066,4.700,3.052
0.059,-0.018,0.510,-4.761,4.517,3.479
0.056,-0.009,0.506,-3.967,3.418,3.662
0.053,-0.004,0.505,-3.540,2.930,3.723
0.048,0.007,0.504,-3.662,2.441,3.845
0.049,0.015,0.506,-2.686,2.136,3.235
0.046,0.019,0.506,-2.686,2.319,2.930
0.048,0.024,0.510,-2.563,1.953,2.136
0.046,0.024,0.510,-2.441,2.014,1.587
0.048,0.022,0.506,-2.502,1.221,0.366
0.047,0.021,0.502,-1.709,1.343,0.122
0.050,0.017,0.504,-1.709,-14.832,-0.305
0.053,0.012,0.506,-0.549,0.366,-1.221
0.054,0.011,0.508,0.671,0.732,-1.587
0.052,0.007,0.508,1.282,0.732,-1.587
0.055,0.007,0.515,2.136,0.854,-2.014
0.056,0.002,0.515,2.319,1.160,-2.136
0.057,-0.000,0.518,1.587,0.549,-1.892
0.058,-0.003,0.514,0.366,0.488,-1.892
0.063,-0.008,0.512,-1.404,-0.427,-1.526
0.068,-0.010,0.511,-2.014,-1.465,-0.854
0.068,-0.012,0.509,-3.113,-1.282,15.564
0.064,-0.007,0.512,-4.456,-1.526,1.099
0.066,-0.012,0.509,-3.784,-2.258,1.038
0.066,-0.016,0.514,-3.296,-1.892,1.038
0.070,-0.017,0.516,-2.991,-1.892,1.221
0.071,-0.018,0.518,-2.502,-1.770,1.587
0.071,-0.013,0.521,-2.380,-2.258,1.953
0.072,-0.010,0.519,-1.953,-1.953,1.831
0.068,-0.008,0.519,-2.502,-1.953,1.831
0.068,-0.008,0.521,-2.625,-1.709,2.075
0.064,-0.010,0.520,-2.258,-1.099,1.709
0.063,-0.007,0.520,-1.770,-1.038,1.648
0.063,-0.008,0.519,-2.136,-1.465,1.221
0.064,-0.009,0.520,-1.526,-1.587,0.977
0.064,-0.013,0.518,-2.075,-1.465,1.099
0.066,-0.017,0.522,-2.686,-1.648,1.343
0.063,-0.020,0.524,-3.235,-1.831,1.343
0.065,-0.023,0.525,-3.479,-2.258,1.892
0.066,-0.025,0.526,-3.967,-2.136,1.709
0.066,-0.021,0.527,-4.639,-2.258,1.953
0.063,-0.021,0.525,-4.883,-1.953,2.991
0.093,-0.020,0.526,-5.127,-2.930,3.052
0.062,-0.018,0.530,-5.432,-2.319,3.113
0.060,-0.017,0.529,-4.761,-2.197,3.662
0.060,-0.015,0.525,-4.272,-1.465,3.296
0.060,-0.011,0.527,-3.479,-1.831,3.052
0.060,-0.012,0.528,-3.296,-1.953,2.991
0.059,-0.006,0.527,-2.502,-0.977,2.686
0.060,-0.004,0.526,-2.197,-1.465,2.258
0.060,-0.001,0.522,-1.709,-0.854,1.892
0.060,-0.002,0.523,-0.854,-0.854,1.160
0.061,-0.003,0.524,-1.282,-1.953,0.732
0.059,-0.003,0.525,0.305,-1.221,1.099
0.064,-0.003,0.529,0.427,-2.014,1.221
0.063,0.002,0.530,-0.427,-0.977,1.221
0.063,0.004,0.534,-0.305,-1.099,1.099
0.062,0.007,0.532,-0.183,-0.671,1.099
0.062,0.009,0.531,-0.183,-0.732,0.854
0.059,0.011,0.530,-0.244,-0.793,0.732
0.058,0.012,0.531,-0.549,-0.732,0.244
0.059,0.016,0.526,-0.916,-0.427,-0.244
0.062,0.012,0.526,-0.916,-1.526,-0.610
0.057,0.009,0.525,-0.916,-0.793,-0.610
0.059,0.011,0.527,-0.610,-1.099,-0.366
0.057,0.007,0.534,-0.793,-0.916,-0.610
0.060,0.005,0.542,-1.709,-0.244,-0.732
